trials.thisRepN,trials.thisTrialN,trials.thisN,trials.thisIndex,trials_2.thisRepN,trials_2.thisTrialN,trials_2.thisN,trials_2.thisIndex,text.started,text.stopped,key_resp.keys,key_resp.rt,key_resp.started,key_resp.stopped,polygon.started,polygon.stopped,text_3.started,text_3.stopped,key_resp_2.keys,key_resp_2.rt,key_resp_2.started,key_resp_2.stopped,polygon_2.started,polygon_2.stopped,text_2.started,text_2.stopped,participant,session,date,expName,psychopyVersion,frameRate,
,,,,,,,,20.236149513999862,None,space,15.502156310999908,20.236149513999862,None,,,,,,,,,,,,,Karol_P300_1,001,2023_lis_15_1503,P300_1,2020.1.2+brain0.21.g3600fa8b8,60.889714788891446,
0,0,0,0,,,,,,,,,,,37.543513233999875,None,,,,,,,,,,,Karol_P300_1,001,2023_lis_15_1503,P300_1,2020.1.2+brain0.21.g3600fa8b8,60.889714788891446,
1,0,1,0,,,,,,,,,,,39.43978088799986,37.8619367849999,,,,,,,,,,,Karol_P300_1,001,2023_lis_15_1503,P300_1,2020.1.2+brain0.21.g3600fa8b8,60.889714788891446,
2,0,2,0,,,,,,,,,,,41.37607281199985,39.743837931999906,,,,,,,,,,,Karol_P300_1,001,2023_lis_15_1503,P300_1,2020.1.2+brain0.21.g3600fa8b8,60.889714788891446,
3,0,3,0,,,,,,,,,,,43.29296991599995,41.69293702999994,,,,,,,,,,,Karol_P300_1,001,2023_lis_15_1503,P300_1,2020.1.2+brain0.21.g3600fa8b8,60.889714788891446,
4,0,4,0,,,,,,,,,,,44.85793686399984,43.59156102399993,,,,,,,,,,,Karol_P300_1,001,2023_lis_15_1503,P300_1,2020.1.2+brain0.21.g3600fa8b8,60.889714788891446,
5,0,5,0,,,,,,,,,,,46.910249225999905,45.16057864100003,,,,,,,,,,,Karol_P300_1,001,2023_lis_15_1503,P300_1,2020.1.2+brain0.21.g3600fa8b8,60.889714788891446,
6,0,6,0,,,,,,,,,,,48.60912316600002,47.20912946399994,,,,,,,,,,,Karol_P300_1,001,2023_lis_15_1503,P300_1,2020.1.2+brain0.21.g3600fa8b8,60.889714788891446,
7,0,7,0,,,,,,,,,,,50.693671130999974,48.91212157399991,,,,,,,,,,,Karol_P300_1,001,2023_lis_15_1503,P300_1,2020.1.2+brain0.21.g3600fa8b8,60.889714788891446,
8,0,8,0,,,,,,,,,,,52.17676773799985,50.99785189499994,,,,,,,,,,,Karol_P300_1,001,2023_lis_15_1503,P300_1,2020.1.2+brain0.21.g3600fa8b8,60.889714788891446,
9,0,9,0,,,,,,,,,,,53.69533327499994,52.47674637599994,,,,,,,,,,,Karol_P300_1,001,2023_lis_15_1503,P300_1,2020.1.2+brain0.21.g3600fa8b8,60.889714788891446,
10,0,10,0,,,,,,,,,,,55.64626546499994,54.01199306399985,,,,,,,,,,,Karol_P300_1,001,2023_lis_15_1503,P300_1,2020.1.2+brain0.21.g3600fa8b8,60.889714788891446,
11,0,11,0,,,,,,,,,,,57.715101989999994,55.962250221999966,,,,,,,,,,,Karol_P300_1,001,2023_lis_15_1503,P300_1,2020.1.2+brain0.21.g3600fa8b8,60.889714788891446,
12,0,12,0,,,,,,,,,,,59.52954176399999,58.02961895399994,,,,,,,,,,,Karol_P300_1,001,2023_lis_15_1503,P300_1,2020.1.2+brain0.21.g3600fa8b8,60.889714788891446,
13,0,13,0,,,,,,,,,,,61.48339693499997,59.82952195099983,,,,,,,,,,,Karol_P300_1,001,2023_lis_15_1503,P300_1,2020.1.2+brain0.21.g3600fa8b8,60.889714788891446,
14,0,14,0,,,,,,,,,,,63.30123843599995,61.79816030899997,,,,,,,,,,,Karol_P300_1,001,2023_lis_15_1503,P300_1,2020.1.2+brain0.21.g3600fa8b8,60.889714788891446,
15,0,15,0,,,,,,,,,,,64.81640666299995,63.597654194999905,,,,,,,,,,,Karol_P300_1,001,2023_lis_15_1503,P300_1,2020.1.2+brain0.21.g3600fa8b8,60.889714788891446,
16,0,16,0,,,,,,,,,,,66.57056327800001,65.11841500299988,,,,,,,,,,,Karol_P300_1,001,2023_lis_15_1503,P300_1,2020.1.2+brain0.21.g3600fa8b8,60.889714788891446,
17,0,17,0,,,,,,,,,,,68.11548585199989,66.88393349699982,,,,,,,,,,,Karol_P300_1,001,2023_lis_15_1503,P300_1,2020.1.2+brain0.21.g3600fa8b8,60.889714788891446,
18,0,18,0,,,,,,,,,,,69.7160109859999,68.41826451399993,,,,,,,,,,,Karol_P300_1,001,2023_lis_15_1503,P300_1,2020.1.2+brain0.21.g3600fa8b8,60.889714788891446,
19,0,19,0,,,,,,,,,,,71.2510446849999,70.01604374699991,,,,,,,,,,,Karol_P300_1,001,2023_lis_15_1503,P300_1,2020.1.2+brain0.21.g3600fa8b8,60.889714788891446,
20,0,20,0,,,,,,,,,,,73.06765840899993,71.55079242199986,,,,,,,,,,,Karol_P300_1,001,2023_lis_15_1503,P300_1,2020.1.2+brain0.21.g3600fa8b8,60.889714788891446,
21,0,21,0,,,,,,,,,,,74.66902084899993,73.36749528299993,,,,,,,,,,,Karol_P300_1,001,2023_lis_15_1503,P300_1,2020.1.2+brain0.21.g3600fa8b8,60.889714788891446,
22,0,22,0,,,,,,,,,,,76.15256995300001,74.97090441099999,,,,,,,,,,,Karol_P300_1,001,2023_lis_15_1503,P300_1,2020.1.2+brain0.21.g3600fa8b8,60.889714788891446,
23,0,23,0,,,,,,,,,,,77.66910547299995,76.452629248,,,,,,,,,,,Karol_P300_1,001,2023_lis_15_1503,P300_1,2020.1.2+brain0.21.g3600fa8b8,60.889714788891446,
24,0,24,0,,,,,,,,,,,79.60581997999998,77.97353065099992,,,,,,,,,,,Karol_P300_1,001,2023_lis_15_1503,P300_1,2020.1.2+brain0.21.g3600fa8b8,60.889714788891446,
25,0,25,0,,,,,,,,,,,81.57036665299984,79.92020072699984,,,,,,,,,,,Karol_P300_1,001,2023_lis_15_1503,P300_1,2020.1.2+brain0.21.g3600fa8b8,60.889714788891446,
26,0,26,0,,,,,,,,,,,83.17319935899991,81.87076130699984,,,,,,,,,,,Karol_P300_1,001,2023_lis_15_1503,P300_1,2020.1.2+brain0.21.g3600fa8b8,60.889714788891446,
27,0,27,0,,,,,,,,,,,84.90952897900002,83.47354051000002,,,,,,,,,,,Karol_P300_1,001,2023_lis_15_1503,P300_1,2020.1.2+brain0.21.g3600fa8b8,60.889714788891446,
28,0,28,0,,,,,,,,,,,86.87617996299991,85.22440327100003,,,,,,,,,,,Karol_P300_1,001,2023_lis_15_1503,P300_1,2020.1.2+brain0.21.g3600fa8b8,60.889714788891446,
29,0,29,0,,,,,,,,,,,88.69017170099983,87.18905874400002,,,,,,,,,,,Karol_P300_1,001,2023_lis_15_1503,P300_1,2020.1.2+brain0.21.g3600fa8b8,60.889714788891446,
30,0,30,0,,,,,,,,,,,90.44006039700002,88.98944575199994,,,,,,,,,,,Karol_P300_1,001,2023_lis_15_1503,P300_1,2020.1.2+brain0.21.g3600fa8b8,60.889714788891446,
31,0,31,0,,,,,,,,,,,92.02797316599981,90.74072299499994,,,,,,,,,,,Karol_P300_1,001,2023_lis_15_1503,P300_1,2020.1.2+brain0.21.g3600fa8b8,60.889714788891446,
32,0,32,0,,,,,,,,,,,93.52649090499995,92.34171324699992,,,,,,,,,,,Karol_P300_1,001,2023_lis_15_1503,P300_1,2020.1.2+brain0.21.g3600fa8b8,60.889714788891446,
33,0,33,0,,,,,,,,,,,95.32470736999994,93.84287990899998,,,,,,,,,,,Karol_P300_1,001,2023_lis_15_1503,P300_1,2020.1.2+brain0.21.g3600fa8b8,60.889714788891446,
34,0,34,0,,,,,,,,,,,97.34766442599994,95.63061769599994,,,,,,,,,,,Karol_P300_1,001,2023_lis_15_1503,P300_1,2020.1.2+brain0.21.g3600fa8b8,60.889714788891446,
35,0,35,0,,,,,,,,,,,99.40971793199992,97.65925329699985,,,,,,,,,,,Karol_P300_1,001,2023_lis_15_1503,P300_1,2020.1.2+brain0.21.g3600fa8b8,60.889714788891446,
36,0,36,0,,,,,,,,,,,101.27712402099996,99.71207648299992,,,,,,,,,,,Karol_P300_1,001,2023_lis_15_1503,P300_1,2020.1.2+brain0.21.g3600fa8b8,60.889714788891446,
37,0,37,0,,,,,,,,,,,103.161695969,101.5767800189999,,,,,,,,,,,Karol_P300_1,001,2023_lis_15_1503,P300_1,2020.1.2+brain0.21.g3600fa8b8,60.889714788891446,
38,0,38,0,,,,,,,,,,,105.01240504999987,103.46340114199984,,,,,,,,,,,Karol_P300_1,001,2023_lis_15_1503,P300_1,2020.1.2+brain0.21.g3600fa8b8,60.889714788891446,
39,0,39,0,,,,,,,,,,,106.70125471099982,105.3127377379999,,,,,,,,,,,Karol_P300_1,001,2023_lis_15_1503,P300_1,2020.1.2+brain0.21.g3600fa8b8,60.889714788891446,
40,0,40,0,,,,,,,,,,,108.56564614599984,107.01392896799985,,,,,,,,,,,Karol_P300_1,001,2023_lis_15_1503,P300_1,2020.1.2+brain0.21.g3600fa8b8,60.889714788891446,
41,0,41,0,,,,,,,,,,,110.63035224600003,108.87981831399998,,,,,,,,,,,Karol_P300_1,001,2023_lis_15_1503,P300_1,2020.1.2+brain0.21.g3600fa8b8,60.889714788891446,
42,0,42,0,,,,,,,,,,,112.51496771899997,110.93258976099992,,,,,,,,,,,Karol_P300_1,001,2023_lis_15_1503,P300_1,2020.1.2+brain0.21.g3600fa8b8,60.889714788891446,
43,0,43,0,,,,,,,,,,,114.06816695499992,112.81609815999991,,,,,,,,,,,Karol_P300_1,001,2023_lis_15_1503,P300_1,2020.1.2+brain0.21.g3600fa8b8,60.889714788891446,
44,0,44,0,,,,,,,,,,,115.78353849099994,114.38416947899987,,,,,,,,,,,Karol_P300_1,001,2023_lis_15_1503,P300_1,2020.1.2+brain0.21.g3600fa8b8,60.889714788891446,
45,0,45,0,,,,,,,,,,,117.68304027799991,116.09878964299992,,,,,,,,,,,Karol_P300_1,001,2023_lis_15_1503,P300_1,2020.1.2+brain0.21.g3600fa8b8,60.889714788891446,
46,0,46,0,,,,,,,,,,,119.24979181699996,117.98477643299998,,,,,,,,,,,Karol_P300_1,001,2023_lis_15_1503,P300_1,2020.1.2+brain0.21.g3600fa8b8,60.889714788891446,
47,0,47,0,,,,,,,,,,,120.80393803499987,119.55439006899996,,,,,,,,,,,Karol_P300_1,001,2023_lis_15_1503,P300_1,2020.1.2+brain0.21.g3600fa8b8,60.889714788891446,
48,0,48,0,,,,,,,,,,,122.53758540699982,121.11674723600004,,,,,,,,,,,Karol_P300_1,001,2023_lis_15_1503,P300_1,2020.1.2+brain0.21.g3600fa8b8,60.889714788891446,
49,0,49,0,,,,,,,,,,,124.17092195499981,122.851508728,,,,,,,,,,,Karol_P300_1,001,2023_lis_15_1503,P300_1,2020.1.2+brain0.21.g3600fa8b8,60.889714788891446,
50,0,50,0,,,,,,,,,,,125.80415799999992,124.46787688299992,,,,,,,,,,,Karol_P300_1,001,2023_lis_15_1503,P300_1,2020.1.2+brain0.21.g3600fa8b8,60.889714788891446,
51,0,51,0,,,,,,,,,,,127.31924272799984,126.10242888999983,,,,,,,,,,,Karol_P300_1,001,2023_lis_15_1503,P300_1,2020.1.2+brain0.21.g3600fa8b8,60.889714788891446,
52,0,52,0,,,,,,,,,,,129.01994851299992,127.620777912,,,,,,,,,,,Karol_P300_1,001,2023_lis_15_1503,P300_1,2020.1.2+brain0.21.g3600fa8b8,60.889714788891446,
53,0,53,0,,,,,,,,,,,131.02327911299994,129.320424086,,,,,,,,,,,Karol_P300_1,001,2023_lis_15_1503,P300_1,2020.1.2+brain0.21.g3600fa8b8,60.889714788891446,
54,0,54,0,,,,,,,,,,,133.05762235399993,131.3369504079999,,,,,,,,,,,Karol_P300_1,001,2023_lis_15_1503,P300_1,2020.1.2+brain0.21.g3600fa8b8,60.889714788891446,
55,0,55,0,,,,,,,,,,,134.68896814899995,133.372706678,,,,,,,,,,,Karol_P300_1,001,2023_lis_15_1503,P300_1,2020.1.2+brain0.21.g3600fa8b8,60.889714788891446,
56,0,56,0,,,,,,,,,,,136.75941834799983,134.98854075199984,,,,,,,,,,,Karol_P300_1,001,2023_lis_15_1503,P300_1,2020.1.2+brain0.21.g3600fa8b8,60.889714788891446,
57,0,57,0,,,,,,,,,,,138.840447197,137.07435226500002,,,,,,,,,,,Karol_P300_1,001,2023_lis_15_1503,P300_1,2020.1.2+brain0.21.g3600fa8b8,60.889714788891446,
58,0,58,0,,,,,,,,,,,140.60683313200002,139.14510879199997,,,,,,,,,,,Karol_P300_1,001,2023_lis_15_1503,P300_1,2020.1.2+brain0.21.g3600fa8b8,60.889714788891446,
59,0,59,0,,,,,,,,,,,142.3416329869999,140.90690493299985,,,,,,,,,,,Karol_P300_1,001,2023_lis_15_1503,P300_1,2020.1.2+brain0.21.g3600fa8b8,60.889714788891446,
60,0,60,0,,,,,,,,,,,144.29198517299983,142.64539318599986,,,,,,,,,,,Karol_P300_1,001,2023_lis_15_1503,P300_1,2020.1.2+brain0.21.g3600fa8b8,60.889714788891446,
61,0,61,0,,,,,,,,,,,145.84374473399998,144.59324397499995,,,,,,,,,,,Karol_P300_1,001,2023_lis_15_1503,P300_1,2020.1.2+brain0.21.g3600fa8b8,60.889714788891446,
62,0,62,0,,,,,,,,,,,147.54465772799995,146.14399559499998,,,,,,,,,,,Karol_P300_1,001,2023_lis_15_1503,P300_1,2020.1.2+brain0.21.g3600fa8b8,60.889714788891446,
63,0,63,0,,,,,,,,,,,149.32662944899994,147.86236765199988,,,,,,,,,,,Karol_P300_1,001,2023_lis_15_1503,P300_1,2020.1.2+brain0.21.g3600fa8b8,60.889714788891446,
64,0,64,0,,,,,,,,,,,150.976940603,149.62658674,,,,,,,,,,,Karol_P300_1,001,2023_lis_15_1503,P300_1,2020.1.2+brain0.21.g3600fa8b8,60.889714788891446,
65,0,65,0,,,,,,,,,,,152.89846386099998,151.277039307,,,,,,,,,,,Karol_P300_1,001,2023_lis_15_1503,P300_1,2020.1.2+brain0.21.g3600fa8b8,60.889714788891446,
66,0,66,0,,,,,,,,,,,154.745677956,153.21279118099983,,,,,,,,,,,Karol_P300_1,001,2023_lis_15_1503,P300_1,2020.1.2+brain0.21.g3600fa8b8,60.889714788891446,
67,0,67,0,,,,,,,,,,,156.29842676099997,155.04856567499996,,,,,,,,,,,Karol_P300_1,001,2023_lis_15_1503,P300_1,2020.1.2+brain0.21.g3600fa8b8,60.889714788891446,
68,0,68,0,,,,,,,,,,,158.21355541499997,156.61514421099992,,,,,,,,,,,Karol_P300_1,001,2023_lis_15_1503,P300_1,2020.1.2+brain0.21.g3600fa8b8,60.889714788891446,
69,0,69,0,,,,,,,,,,,160.24701520999997,158.51328595299992,,,,,,,,,,,Karol_P300_1,001,2023_lis_15_1503,P300_1,2020.1.2+brain0.21.g3600fa8b8,60.889714788891446,
70,0,70,0,,,,,,,,,,,162.23129574899986,160.54694539399998,,,,,,,,,,,Karol_P300_1,001,2023_lis_15_1503,P300_1,2020.1.2+brain0.21.g3600fa8b8,60.889714788891446,
71,0,71,0,,,,,,,,,,,163.89856625699986,162.53686414999993,,,,,,,,,,,Karol_P300_1,001,2023_lis_15_1503,P300_1,2020.1.2+brain0.21.g3600fa8b8,60.889714788891446,
72,0,72,0,,,,,,,,,,,165.5824052119999,164.19824840399997,,,,,,,,,,,Karol_P300_1,001,2023_lis_15_1503,P300_1,2020.1.2+brain0.21.g3600fa8b8,60.889714788891446,
73,0,73,0,,,,,,,,,,,167.54973369699997,165.88451339699986,,,,,,,,,,,Karol_P300_1,001,2023_lis_15_1503,P300_1,2020.1.2+brain0.21.g3600fa8b8,60.889714788891446,
74,0,74,0,,,,,,,,,,,169.10017873599986,167.85369348299992,,,,,,,,,,,Karol_P300_1,001,2023_lis_15_1503,P300_1,2020.1.2+brain0.21.g3600fa8b8,60.889714788891446,
75,0,75,0,,,,,,,,,,,170.83757124099998,169.40392357299993,,,,,,,,,,,Karol_P300_1,001,2023_lis_15_1503,P300_1,2020.1.2+brain0.21.g3600fa8b8,60.889714788891446,
76,0,76,0,,,,,,,,,,,172.58929215199987,171.15086852499985,,,,,,,,,,,Karol_P300_1,001,2023_lis_15_1503,P300_1,2020.1.2+brain0.21.g3600fa8b8,60.889714788891446,
77,0,77,0,,,,,,,,,,,174.21831198199993,172.90147241699992,,,,,,,,,,,Karol_P300_1,001,2023_lis_15_1503,P300_1,2020.1.2+brain0.21.g3600fa8b8,60.889714788891446,
78,0,78,0,,,,,,,,,,,176.00410419399986,174.51836196099998,,,,,,,,,,,Karol_P300_1,001,2023_lis_15_1503,P300_1,2020.1.2+brain0.21.g3600fa8b8,60.889714788891446,
79,0,79,0,,,,,,,,,,,178.05362130699996,176.303551341,,,,,,,,,,,Karol_P300_1,001,2023_lis_15_1503,P300_1,2020.1.2+brain0.21.g3600fa8b8,60.889714788891446,
80,0,80,0,,,,,,,,,,,179.80503244099987,178.35525507499983,,,,,,,,,,,Karol_P300_1,001,2023_lis_15_1503,P300_1,2020.1.2+brain0.21.g3600fa8b8,60.889714788891446,
81,0,81,0,,,,,,,,,,,181.4562081879999,180.1084390599999,,,,,,,,,,,Karol_P300_1,001,2023_lis_15_1503,P300_1,2020.1.2+brain0.21.g3600fa8b8,60.889714788891446,
82,0,82,0,,,,,,,,,,,183.47381044299982,181.75621781199993,,,,,,,,,,,Karol_P300_1,001,2023_lis_15_1503,P300_1,2020.1.2+brain0.21.g3600fa8b8,60.889714788891446,
83,0,83,0,,,,,,,,,,,185.527805641,183.77393614099992,,,,,,,,,,,Karol_P300_1,001,2023_lis_15_1503,P300_1,2020.1.2+brain0.21.g3600fa8b8,60.889714788891446,
84,0,84,0,,,,,,,,,,,187.12824670299983,185.83889099099997,,,,,,,,,,,Karol_P300_1,001,2023_lis_15_1503,P300_1,2020.1.2+brain0.21.g3600fa8b8,60.889714788891446,
85,0,85,0,,,,,,,,,,,189.07480772299982,187.43945171999985,,,,,,,,,,,Karol_P300_1,001,2023_lis_15_1503,P300_1,2020.1.2+brain0.21.g3600fa8b8,60.889714788891446,
86,0,86,0,,,,,,,,,,,190.62650678,189.37649455199994,,,,,,,,,,,Karol_P300_1,001,2023_lis_15_1503,P300_1,2020.1.2+brain0.21.g3600fa8b8,60.889714788891446,
87,0,87,0,,,,,,,,,,,192.54214304599986,190.92569378099984,,,,,,,,,,,Karol_P300_1,001,2023_lis_15_1503,P300_1,2020.1.2+brain0.21.g3600fa8b8,60.889714788891446,
88,0,88,0,,,,,,,,,,,194.59576798900002,192.841220841,,,,,,,,,,,Karol_P300_1,001,2023_lis_15_1503,P300_1,2020.1.2+brain0.21.g3600fa8b8,60.889714788891446,
89,0,89,0,,,,,,,,,,,196.34281110899997,194.8939865509999,,,,,,,,,,,Karol_P300_1,001,2023_lis_15_1503,P300_1,2020.1.2+brain0.21.g3600fa8b8,60.889714788891446,
90,0,90,0,,,,,,,,,,,198.094122364,196.64721711599987,,,,,,,,,,,Karol_P300_1,001,2023_lis_15_1503,P300_1,2020.1.2+brain0.21.g3600fa8b8,60.889714788891446,
91,0,91,0,,,,,,,,,,,200.14489732999982,198.39511776899985,,,,,,,,,,,Karol_P300_1,001,2023_lis_15_1503,P300_1,2020.1.2+brain0.21.g3600fa8b8,60.889714788891446,
92,0,92,0,,,,,,,,,,,201.86143116899984,200.44501170399985,,,,,,,,,,,Karol_P300_1,001,2023_lis_15_1503,P300_1,2020.1.2+brain0.21.g3600fa8b8,60.889714788891446,
93,0,93,0,,,,,,,,,,,203.59894013400003,202.16112060599994,,,,,,,,,,,Karol_P300_1,001,2023_lis_15_1503,P300_1,2020.1.2+brain0.21.g3600fa8b8,60.889714788891446,
94,0,94,0,,,,,,,,,,,205.6485719499999,203.9171950529999,,,,,,,,,,,Karol_P300_1,001,2023_lis_15_1503,P300_1,2020.1.2+brain0.21.g3600fa8b8,60.889714788891446,
95,0,95,0,,,,,,,,,,,207.60125553699982,205.96284599299997,,,,,,,,,,,Karol_P300_1,001,2023_lis_15_1503,P300_1,2020.1.2+brain0.21.g3600fa8b8,60.889714788891446,
96,0,96,0,,,,,,,,,,,209.514089516,207.9164635929999,,,,,,,,,,,Karol_P300_1,001,2023_lis_15_1503,P300_1,2020.1.2+brain0.21.g3600fa8b8,60.889714788891446,
97,0,97,0,,,,,,,,,,,211.14989438599991,209.81462509099993,,,,,,,,,,,Karol_P300_1,001,2023_lis_15_1503,P300_1,2020.1.2+brain0.21.g3600fa8b8,60.889714788891446,
98,0,98,0,,,,,,,,,,,212.8158629469999,211.46466423599986,,,,,,,,,,,Karol_P300_1,001,2023_lis_15_1503,P300_1,2020.1.2+brain0.21.g3600fa8b8,60.889714788891446,
99,0,99,0,,,,,,,,,,,214.86778459599986,213.11537427500002,,,,,,,,,,,Karol_P300_1,001,2023_lis_15_1503,P300_1,2020.1.2+brain0.21.g3600fa8b8,60.889714788891446,
100,0,100,0,,,,,,,,,,,216.68366522799988,215.1853822779999,,,,,,,,,,,Karol_P300_1,001,2023_lis_15_1503,P300_1,2020.1.2+brain0.21.g3600fa8b8,60.889714788891446,
101,0,101,0,,,,,,,,,,,218.5501884539999,216.98291954399997,,,,,,,,,,,Karol_P300_1,001,2023_lis_15_1503,P300_1,2020.1.2+brain0.21.g3600fa8b8,60.889714788891446,
102,0,102,0,,,,,,,,,,,220.4387875299999,218.8503395339999,,,,,,,,,,,Karol_P300_1,001,2023_lis_15_1503,P300_1,2020.1.2+brain0.21.g3600fa8b8,60.889714788891446,
103,0,103,0,,,,,,,,,,,222.38511172799986,220.75080108399993,,,,,,,,,,,Karol_P300_1,001,2023_lis_15_1503,P300_1,2020.1.2+brain0.21.g3600fa8b8,60.889714788891446,
104,0,104,0,,,,,,,,,,,223.93624189599996,222.68600138099987,,,,,,,,,,,Karol_P300_1,001,2023_lis_15_1503,P300_1,2020.1.2+brain0.21.g3600fa8b8,60.889714788891446,
105,0,105,0,,,,,,,,,,,225.8034209099999,224.23579558999995,,,,,,,,,,,Karol_P300_1,001,2023_lis_15_1503,P300_1,2020.1.2+brain0.21.g3600fa8b8,60.889714788891446,
106,0,106,0,,,,,,,,,,,227.87203627999997,226.102992245,,,,,,,,,,,Karol_P300_1,001,2023_lis_15_1503,P300_1,2020.1.2+brain0.21.g3600fa8b8,60.889714788891446,
107,0,107,0,,,,,,,,,,,229.45877533099997,228.18976823999992,,,,,,,,,,,Karol_P300_1,001,2023_lis_15_1503,P300_1,2020.1.2+brain0.21.g3600fa8b8,60.889714788891446,
108,0,108,0,,,,,,,,,,,231.04079270900002,229.77051001299992,,,,,,,,,,,Karol_P300_1,001,2023_lis_15_1503,P300_1,2020.1.2+brain0.21.g3600fa8b8,60.889714788891446,
109,0,109,0,,,,,,,,,,,232.65603628099984,231.35697522600003,,,,,,,,,,,Karol_P300_1,001,2023_lis_15_1503,P300_1,2020.1.2+brain0.21.g3600fa8b8,60.889714788891446,
110,0,110,0,,,,,,,,,,,234.2568377749999,232.95588936599984,,,,,,,,,,,Karol_P300_1,001,2023_lis_15_1503,P300_1,2020.1.2+brain0.21.g3600fa8b8,60.889714788891446,
111,0,111,0,,,,,,,,,,,235.9226083389999,234.55607708599996,,,,,,,,,,,Karol_P300_1,001,2023_lis_15_1503,P300_1,2020.1.2+brain0.21.g3600fa8b8,60.889714788891446,
112,0,112,0,,,,,,,,,,,237.55705494199992,236.22271463099992,,,,,,,,,,,Karol_P300_1,001,2023_lis_15_1503,P300_1,2020.1.2+brain0.21.g3600fa8b8,60.889714788891446,
113,0,113,0,,,,,,,,,,,239.29203915799985,237.85913065,,,,,,,,,,,Karol_P300_1,001,2023_lis_15_1503,P300_1,2020.1.2+brain0.21.g3600fa8b8,60.889714788891446,
114,0,114,0,,,,,,,,,,,241.12480202099982,239.59373793600003,,,,,,,,,,,Karol_P300_1,001,2023_lis_15_1503,P300_1,2020.1.2+brain0.21.g3600fa8b8,60.889714788891446,
115,0,115,0,,,,,,,,,,,242.7614566069999,241.42814440799998,,,,,,,,,,,Karol_P300_1,001,2023_lis_15_1503,P300_1,2020.1.2+brain0.21.g3600fa8b8,60.889714788891446,
116,0,116,0,,,,,,,,,,,244.81331655999998,243.07683574599992,,,,,,,,,,,Karol_P300_1,001,2023_lis_15_1503,P300_1,2020.1.2+brain0.21.g3600fa8b8,60.889714788891446,
117,0,117,0,,,,,,,,,,,246.59744672800002,245.12619343400002,,,,,,,,,,,Karol_P300_1,001,2023_lis_15_1503,P300_1,2020.1.2+brain0.21.g3600fa8b8,60.889714788891446,
118,0,118,0,,,,,,,,,,,248.1784967829999,246.91400272399983,,,,,,,,,,,Karol_P300_1,001,2023_lis_15_1503,P300_1,2020.1.2+brain0.21.g3600fa8b8,60.889714788891446,
119,0,119,0,,,,,,,,,,,249.84451982699989,248.47804317099985,,,,,,,,,,,Karol_P300_1,001,2023_lis_15_1503,P300_1,2020.1.2+brain0.21.g3600fa8b8,60.889714788891446,
120,0,120,0,,,,,,,,,,,251.51146777600002,250.14417741900002,,,,,,,,,,,Karol_P300_1,001,2023_lis_15_1503,P300_1,2020.1.2+brain0.21.g3600fa8b8,60.889714788891446,
121,0,121,0,,,,,,,,,,,253.49566404099983,251.81335705599986,,,,,,,,,,,Karol_P300_1,001,2023_lis_15_1503,P300_1,2020.1.2+brain0.21.g3600fa8b8,60.889714788891446,
122,0,122,0,,,,,,,,,,,255.14939267199998,253.79585300299982,,,,,,,,,,,Karol_P300_1,001,2023_lis_15_1503,P300_1,2020.1.2+brain0.21.g3600fa8b8,60.889714788891446,
123,0,123,0,,,,,,,,,,,256.9319590769999,255.44691826500002,,,,,,,,,,,Karol_P300_1,001,2023_lis_15_1503,P300_1,2020.1.2+brain0.21.g3600fa8b8,60.889714788891446,
124,0,124,0,,,,,,,,,,,258.6480175469999,257.247134704,,,,,,,,,,,Karol_P300_1,001,2023_lis_15_1503,P300_1,2020.1.2+brain0.21.g3600fa8b8,60.889714788891446,
125,0,125,0,,,,,,,,,,,260.298134138,258.948147522,,,,,,,,,,,Karol_P300_1,001,2023_lis_15_1503,P300_1,2020.1.2+brain0.21.g3600fa8b8,60.889714788891446,
126,0,126,0,,,,,,,,,,,261.865241555,260.60058536199995,,,,,,,,,,,Karol_P300_1,001,2023_lis_15_1503,P300_1,2020.1.2+brain0.21.g3600fa8b8,60.889714788891446,
127,0,127,0,,,,,,,,,,,263.400840238,262.165866132,,,,,,,,,,,Karol_P300_1,001,2023_lis_15_1503,P300_1,2020.1.2+brain0.21.g3600fa8b8,60.889714788891446,
128,0,128,0,,,,,,,,,,,265.10239265899986,263.71588010799996,,,,,,,,,,,Karol_P300_1,001,2023_lis_15_1503,P300_1,2020.1.2+brain0.21.g3600fa8b8,60.889714788891446,
129,0,129,0,,,,,,,,,,,266.835425302,265.419831833,,,,,,,,,,,Karol_P300_1,001,2023_lis_15_1503,P300_1,2020.1.2+brain0.21.g3600fa8b8,60.889714788891446,
130,0,130,0,,,,,,,,,,,268.8065262089999,267.15258935199995,,,,,,,,,,,Karol_P300_1,001,2023_lis_15_1503,P300_1,2020.1.2+brain0.21.g3600fa8b8,60.889714788891446,
131,0,131,0,,,,,,,,,,,270.704181823,269.11777654,,,,,,,,,,,Karol_P300_1,001,2023_lis_15_1503,P300_1,2020.1.2+brain0.21.g3600fa8b8,60.889714788891446,
132,0,132,0,,,,,,,,,,,272.48528228099985,271.0183608739999,,,,,,,,,,,Karol_P300_1,001,2023_lis_15_1503,P300_1,2020.1.2+brain0.21.g3600fa8b8,60.889714788891446,
133,0,133,0,,,,,,,,,,,274.37073187199985,272.7853187779999,,,,,,,,,,,Karol_P300_1,001,2023_lis_15_1503,P300_1,2020.1.2+brain0.21.g3600fa8b8,60.889714788891446,
134,0,134,0,,,,,,,,,,,275.9562421549999,274.670299847,,,,,,,,,,,Karol_P300_1,001,2023_lis_15_1503,P300_1,2020.1.2+brain0.21.g3600fa8b8,60.889714788891446,
135,0,135,0,,,,,,,,,,,277.68739771499986,276.272506967,,,,,,,,,,,Karol_P300_1,001,2023_lis_15_1503,P300_1,2020.1.2+brain0.21.g3600fa8b8,60.889714788891446,
136,0,136,0,,,,,,,,,,,279.3378363439997,277.9907587980001,,,,,,,,,,,Karol_P300_1,001,2023_lis_15_1503,P300_1,2020.1.2+brain0.21.g3600fa8b8,60.889714788891446,
137,0,137,0,,,,,,,,,,,281.20501192899974,279.63791972299987,,,,,,,,,,,Karol_P300_1,001,2023_lis_15_1503,P300_1,2020.1.2+brain0.21.g3600fa8b8,60.889714788891446,
138,0,138,0,,,,,,,,,,,283.07376509000005,281.50492432600004,,,,,,,,,,,Karol_P300_1,001,2023_lis_15_1503,P300_1,2020.1.2+brain0.21.g3600fa8b8,60.889714788891446,
139,0,139,0,,,,,,,,,,,284.94147680900005,283.39333222999994,,,,,,,,,,,Karol_P300_1,001,2023_lis_15_1503,P300_1,2020.1.2+brain0.21.g3600fa8b8,60.889714788891446,
140,0,140,0,,,,,,,,,,,286.456595396,285.24012225900015,,,,,,,,,,,Karol_P300_1,001,2023_lis_15_1503,P300_1,2020.1.2+brain0.21.g3600fa8b8,60.889714788891446,
141,0,141,0,,,,,,,,,,,288.47453743000005,286.75701830499975,,,,,,,,,,,Karol_P300_1,001,2023_lis_15_1503,P300_1,2020.1.2+brain0.21.g3600fa8b8,60.889714788891446,
142,0,142,0,,,,,,,,,,,290.25832575699997,288.7764808070001,,,,,,,,,,,Karol_P300_1,001,2023_lis_15_1503,P300_1,2020.1.2+brain0.21.g3600fa8b8,60.889714788891446,
143,0,143,0,,,,,,,,,,,292.0752532219999,290.5638302520001,,,,,,,,,,,Karol_P300_1,001,2023_lis_15_1503,P300_1,2020.1.2+brain0.21.g3600fa8b8,60.889714788891446,
144,0,144,0,,,,,,,,,,,294.1116646219998,292.37524188399993,,,,,,,,,,,Karol_P300_1,001,2023_lis_15_1503,P300_1,2020.1.2+brain0.21.g3600fa8b8,60.889714788891446,
145,0,145,0,,,,,,,,,,,295.9606535180001,294.4112290779999,,,,,,,,,,,Karol_P300_1,001,2023_lis_15_1503,P300_1,2020.1.2+brain0.21.g3600fa8b8,60.889714788891446,
146,0,146,0,,,,,,,,,,,297.495841208,296.26083466,,,,,,,,,,,Karol_P300_1,001,2023_lis_15_1503,P300_1,2020.1.2+brain0.21.g3600fa8b8,60.889714788891446,
147,0,147,0,,,,,,,,,,,299.2816545679998,297.81264004800005,,,,,,,,,,,Karol_P300_1,001,2023_lis_15_1503,P300_1,2020.1.2+brain0.21.g3600fa8b8,60.889714788891446,
148,0,148,0,,,,,,,,,,,301.35222863299987,299.59830872600014,,,,,,,,,,,Karol_P300_1,001,2023_lis_15_1503,P300_1,2020.1.2+brain0.21.g3600fa8b8,60.889714788891446,
149,0,149,0,,,,,,,,,,,303.3795891609998,301.66211992299986,,,,,,,,,,,Karol_P300_1,001,2023_lis_15_1503,P300_1,2020.1.2+brain0.21.g3600fa8b8,60.889714788891446,
,,,,,,,,,,,,,,,,303.682729352,None,space,8.904021808999914,303.682729352,None,,,,,Karol_P300_1,001,2023_lis_15_1503,P300_1,2020.1.2+brain0.21.g3600fa8b8,60.889714788891446,
,,,,0,0,0,0,,,,,,,,,,,,,,,314.35189381600003,None,,,Karol_P300_1,001,2023_lis_15_1503,P300_1,2020.1.2+brain0.21.g3600fa8b8,60.889714788891446,
,,,,1,0,1,0,,,,,,,,,,,,,,,315.9030158679998,314.6493311559998,,,Karol_P300_1,001,2023_lis_15_1503,P300_1,2020.1.2+brain0.21.g3600fa8b8,60.889714788891446,
,,,,2,0,2,0,,,,,,,,,,,,,,,317.688114307,316.1998422030001,,,Karol_P300_1,001,2023_lis_15_1503,P300_1,2020.1.2+brain0.21.g3600fa8b8,60.889714788891446,
,,,,3,0,3,0,,,,,,,,,,,,,,,319.5185815939999,318.0007238109997,,,Karol_P300_1,001,2023_lis_15_1503,P300_1,2020.1.2+brain0.21.g3600fa8b8,60.889714788891446,
,,,,4,0,4,0,,,,,,,,,,,,,,,321.088725439,319.81797660799975,,,Karol_P300_1,001,2023_lis_15_1503,P300_1,2020.1.2+brain0.21.g3600fa8b8,60.889714788891446,
,,,,5,0,5,0,,,,,,,,,,,,,,,323.068332889,321.4030471159999,,,Karol_P300_1,001,2023_lis_15_1503,P300_1,2020.1.2+brain0.21.g3600fa8b8,60.889714788891446,
,,,,6,0,6,0,,,,,,,,,,,,,,,324.9746434159997,323.37271854799974,,,Karol_P300_1,001,2023_lis_15_1503,P300_1,2020.1.2+brain0.21.g3600fa8b8,60.889714788891446,
,,,,7,0,7,0,,,,,,,,,,,,,,,326.7038730009999,325.2861206829998,,,Karol_P300_1,001,2023_lis_15_1503,P300_1,2020.1.2+brain0.21.g3600fa8b8,60.889714788891446,
,,,,8,0,8,0,,,,,,,,,,,,,,,328.4409120810001,327.004613266,,,Karol_P300_1,001,2023_lis_15_1503,P300_1,2020.1.2+brain0.21.g3600fa8b8,60.889714788891446,
,,,,9,0,9,0,,,,,,,,,,,,,,,330.3711444999999,328.7569759089997,,,Karol_P300_1,001,2023_lis_15_1503,P300_1,2020.1.2+brain0.21.g3600fa8b8,60.889714788891446,
,,,,10,0,10,0,,,,,,,,,,,,,,,331.872287656,330.671414422,,,Karol_P300_1,001,2023_lis_15_1503,P300_1,2020.1.2+brain0.21.g3600fa8b8,60.889714788891446,
,,,,11,0,11,0,,,,,,,,,,,,,,,333.60475850600005,332.1724729739999,,,Karol_P300_1,001,2023_lis_15_1503,P300_1,2020.1.2+brain0.21.g3600fa8b8,60.889714788891446,
,,,,12,0,12,0,,,,,,,,,,,,,,,335.10515916999975,333.904605745,,,Karol_P300_1,001,2023_lis_15_1503,P300_1,2020.1.2+brain0.21.g3600fa8b8,60.889714788891446,
,,,,13,0,13,0,,,,,,,,,,,,,,,337.12664909399973,335.40519250499983,,,Karol_P300_1,001,2023_lis_15_1503,P300_1,2020.1.2+brain0.21.g3600fa8b8,60.889714788891446,
,,,,14,0,14,0,,,,,,,,,,,,,,,338.6260858569999,337.44162247099985,,,Karol_P300_1,001,2023_lis_15_1503,P300_1,2020.1.2+brain0.21.g3600fa8b8,60.889714788891446,
,,,,15,0,15,0,,,,,,,,,,,,,,,340.29073296900015,338.94036627000014,,,Karol_P300_1,001,2023_lis_15_1503,P300_1,2020.1.2+brain0.21.g3600fa8b8,60.889714788891446,
,,,,16,0,16,0,,,,,,,,,,,,,,,342.30713389599987,340.5927632329999,,,Karol_P300_1,001,2023_lis_15_1503,P300_1,2020.1.2+brain0.21.g3600fa8b8,60.889714788891446,
,,,,17,0,17,0,,,,,,,,,,,,,,,344.09578618299975,342.6079334699998,,,Karol_P300_1,001,2023_lis_15_1503,P300_1,2020.1.2+brain0.21.g3600fa8b8,60.889714788891446,
,,,,18,0,18,0,,,,,,,,,,,,,,,345.9430186889999,344.410777436,,,Karol_P300_1,001,2023_lis_15_1503,P300_1,2020.1.2+brain0.21.g3600fa8b8,60.889714788891446,
,,,,19,0,19,0,,,,,,,,,,,,,,,347.8615845889999,346.25883581200014,,,Karol_P300_1,001,2023_lis_15_1503,P300_1,2020.1.2+brain0.21.g3600fa8b8,60.889714788891446,
,,,,20,0,20,0,,,,,,,,,,,,,,,349.6462566959999,348.1593203289999,,,Karol_P300_1,001,2023_lis_15_1503,P300_1,2020.1.2+brain0.21.g3600fa8b8,60.889714788891446,
,,,,21,0,21,0,,,,,,,,,,,,,,,351.7123263889998,349.9597297370001,,,Karol_P300_1,001,2023_lis_15_1503,P300_1,2020.1.2+brain0.21.g3600fa8b8,60.889714788891446,
,,,,22,0,22,0,,,,,,,,,,,,,,,353.64875182100013,352.010835648,,,Karol_P300_1,001,2023_lis_15_1503,P300_1,2020.1.2+brain0.21.g3600fa8b8,60.889714788891446,
,,,,23,0,23,0,,,,,,,,,,,,,,,355.161686248,353.9613978110001,,,Karol_P300_1,001,2023_lis_15_1503,P300_1,2020.1.2+brain0.21.g3600fa8b8,60.889714788891446,
,,,,24,0,24,0,,,,,,,,,,,,,,,356.78236096699993,355.4628664359998,,,Karol_P300_1,001,2023_lis_15_1503,P300_1,2020.1.2+brain0.21.g3600fa8b8,60.889714788891446,
,,,,25,0,25,0,,,,,,,,,,,,,,,358.36316411999996,357.07829965500014,,,Karol_P300_1,001,2023_lis_15_1503,P300_1,2020.1.2+brain0.21.g3600fa8b8,60.889714788891446,
,,,,26,0,26,0,,,,,,,,,,,,,,,360.0959889129999,358.66451532400015,,,Karol_P300_1,001,2023_lis_15_1503,P300_1,2020.1.2+brain0.21.g3600fa8b8,60.889714788891446,
,,,,27,0,27,0,,,,,,,,,,,,,,,361.61478140500003,360.395976926,,,Karol_P300_1,001,2023_lis_15_1503,P300_1,2020.1.2+brain0.21.g3600fa8b8,60.889714788891446,
,,,,28,0,28,0,,,,,,,,,,,,,,,363.44693043899997,361.9303035019998,,,Karol_P300_1,001,2023_lis_15_1503,P300_1,2020.1.2+brain0.21.g3600fa8b8,60.889714788891446,
,,,,29,0,29,0,,,,,,,,,,,,,,,365.065184005,363.746925852,,,Karol_P300_1,001,2023_lis_15_1503,P300_1,2020.1.2+brain0.21.g3600fa8b8,60.889714788891446,
,,,,30,0,30,0,,,,,,,,,,,,,,,366.6330157819998,365.382058403,,,Karol_P300_1,001,2023_lis_15_1503,P300_1,2020.1.2+brain0.21.g3600fa8b8,60.889714788891446,
,,,,31,0,31,0,,,,,,,,,,,,,,,368.3205988939999,366.9319831120001,,,Karol_P300_1,001,2023_lis_15_1503,P300_1,2020.1.2+brain0.21.g3600fa8b8,60.889714788891446,
,,,,32,0,32,0,,,,,,,,,,,,,,,369.8709761350001,368.6352014899999,,,Karol_P300_1,001,2023_lis_15_1503,P300_1,2020.1.2+brain0.21.g3600fa8b8,60.889714788891446,
,,,,33,0,33,0,,,,,,,,,,,,,,,371.93357458399987,370.18311893400005,,,Karol_P300_1,001,2023_lis_15_1503,P300_1,2020.1.2+brain0.21.g3600fa8b8,60.889714788891446,
,,,,34,0,34,0,,,,,,,,,,,,,,,373.9877804089997,372.23366025999985,,,Karol_P300_1,001,2023_lis_15_1503,P300_1,2020.1.2+brain0.21.g3600fa8b8,60.889714788891446,
,,,,35,0,35,0,,,,,,,,,,,,,,,376.0012188679998,374.30109461799975,,,Karol_P300_1,001,2023_lis_15_1503,P300_1,2020.1.2+brain0.21.g3600fa8b8,60.889714788891446,
,,,,36,0,36,0,,,,,,,,,,,,,,,378.086473804,376.30114963200003,,,Karol_P300_1,001,2023_lis_15_1503,P300_1,2020.1.2+brain0.21.g3600fa8b8,60.889714788891446,
,,,,37,0,37,0,,,,,,,,,,,,,,,380.1402502149999,378.4019155279998,,,Karol_P300_1,001,2023_lis_15_1503,P300_1,2020.1.2+brain0.21.g3600fa8b8,60.889714788891446,
,,,,38,0,38,0,,,,,,,,,,,,,,,381.8910023049998,380.457072657,,,Karol_P300_1,001,2023_lis_15_1503,P300_1,2020.1.2+brain0.21.g3600fa8b8,60.889714788891446,
,,,,39,0,39,0,,,,,,,,,,,,,,,383.72136153600013,382.2046046229998,,,Karol_P300_1,001,2023_lis_15_1503,P300_1,2020.1.2+brain0.21.g3600fa8b8,60.889714788891446,
,,,,40,0,40,0,,,,,,,,,,,,,,,385.50901348299976,384.0201656429999,,,Karol_P300_1,001,2023_lis_15_1503,P300_1,2020.1.2+brain0.21.g3600fa8b8,60.889714788891446,
,,,,41,0,41,0,,,,,,,,,,,,,,,387.1875030609999,385.82071045700013,,,Karol_P300_1,001,2023_lis_15_1503,P300_1,2020.1.2+brain0.21.g3600fa8b8,60.889714788891446,
,,,,42,0,42,0,,,,,,,,,,,,,,,388.72312750699984,387.48754504399994,,,Karol_P300_1,001,2023_lis_15_1503,P300_1,2020.1.2+brain0.21.g3600fa8b8,60.889714788891446,
,,,,43,0,43,0,,,,,,,,,,,,,,,390.7739161129998,389.0221356920001,,,Karol_P300_1,001,2023_lis_15_1503,P300_1,2020.1.2+brain0.21.g3600fa8b8,60.889714788891446,
,,,,44,0,44,0,,,,,,,,,,,,,,,392.7893398269998,391.07281525300004,,,Karol_P300_1,001,2023_lis_15_1503,P300_1,2020.1.2+brain0.21.g3600fa8b8,60.889714788891446,
,,,,45,0,45,0,,,,,,,,,,,,,,,394.8399176570001,393.0893220459998,,,Karol_P300_1,001,2023_lis_15_1503,P300_1,2020.1.2+brain0.21.g3600fa8b8,60.889714788891446,
,,,,46,0,46,0,,,,,,,,,,,,,,,396.6774468949998,395.139921944,,,Karol_P300_1,001,2023_lis_15_1503,P300_1,2020.1.2+brain0.21.g3600fa8b8,60.889714788891446,
,,,,47,0,47,0,,,,,,,,,,,,,,,398.75778812,396.99105486200006,,,Karol_P300_1,001,2023_lis_15_1503,P300_1,2020.1.2+brain0.21.g3600fa8b8,60.889714788891446,
,,,,48,0,48,0,,,,,,,,,,,,,,,400.44185685699995,399.05771337399983,,,Karol_P300_1,001,2023_lis_15_1503,P300_1,2020.1.2+brain0.21.g3600fa8b8,60.889714788891446,
,,,,49,0,49,0,,,,,,,,,,,,,,,402.094875452,400.74209743799975,,,Karol_P300_1,001,2023_lis_15_1503,P300_1,2020.1.2+brain0.21.g3600fa8b8,60.889714788891446,
,,,,50,0,50,0,,,,,,,,,,,,,,,403.7929155249999,402.40887480599986,,,Karol_P300_1,001,2023_lis_15_1503,P300_1,2020.1.2+brain0.21.g3600fa8b8,60.889714788891446,
,,,,51,0,51,0,,,,,,,,,,,,,,,405.3449778969998,404.094609406,,,Karol_P300_1,001,2023_lis_15_1503,P300_1,2020.1.2+brain0.21.g3600fa8b8,60.889714788891446,
,,,,52,0,52,0,,,,,,,,,,,,,,,407.0622803030001,405.660707946,,,Karol_P300_1,001,2023_lis_15_1503,P300_1,2020.1.2+brain0.21.g3600fa8b8,60.889714788891446,
,,,,53,0,53,0,,,,,,,,,,,,,,,408.6775925709999,407.382094523,,,Karol_P300_1,001,2023_lis_15_1503,P300_1,2020.1.2+brain0.21.g3600fa8b8,60.889714788891446,
,,,,54,0,54,0,,,,,,,,,,,,,,,410.211677625,408.9775545839998,,,Karol_P300_1,001,2023_lis_15_1503,P300_1,2020.1.2+brain0.21.g3600fa8b8,60.889714788891446,
,,,,55,0,55,0,,,,,,,,,,,,,,,412.07928256700006,410.514107081,,,Karol_P300_1,001,2023_lis_15_1503,P300_1,2020.1.2+brain0.21.g3600fa8b8,60.889714788891446,
,,,,56,0,56,0,,,,,,,,,,,,,,,414.14766153599976,412.3785274689999,,,Karol_P300_1,001,2023_lis_15_1503,P300_1,2020.1.2+brain0.21.g3600fa8b8,60.889714788891446,
,,,,57,0,57,0,,,,,,,,,,,,,,,415.8159390699998,414.46429265100005,,,Karol_P300_1,001,2023_lis_15_1503,P300_1,2020.1.2+brain0.21.g3600fa8b8,60.889714788891446,
,,,,58,0,58,0,,,,,,,,,,,,,,,417.76505734600005,416.1300344629999,,,Karol_P300_1,001,2023_lis_15_1503,P300_1,2020.1.2+brain0.21.g3600fa8b8,60.889714788891446,
,,,,59,0,59,0,,,,,,,,,,,,,,,419.3811403740001,418.0811549619998,,,Karol_P300_1,001,2023_lis_15_1503,P300_1,2020.1.2+brain0.21.g3600fa8b8,60.889714788891446,
,,,,60,0,60,0,,,,,,,,,,,,,,,421.4481774189999,419.6816665299998,,,Karol_P300_1,001,2023_lis_15_1503,P300_1,2020.1.2+brain0.21.g3600fa8b8,60.889714788891446,
,,,,61,0,61,0,,,,,,,,,,,,,,,423.33759140799975,421.7480303739999,,,Karol_P300_1,001,2023_lis_15_1503,P300_1,2020.1.2+brain0.21.g3600fa8b8,60.889714788891446,
,,,,62,0,62,0,,,,,,,,,,,,,,,425.4181419249999,423.6522864039998,,,Karol_P300_1,001,2023_lis_15_1503,P300_1,2020.1.2+brain0.21.g3600fa8b8,60.889714788891446,
,,,,63,0,63,0,,,,,,,,,,,,,,,427.39985054,425.73650825999994,,,Karol_P300_1,001,2023_lis_15_1503,P300_1,2020.1.2+brain0.21.g3600fa8b8,60.889714788891446,
,,,,64,0,64,0,,,,,,,,,,,,,,,429.3008792759997,427.6998967049999,,,Karol_P300_1,001,2023_lis_15_1503,P300_1,2020.1.2+brain0.21.g3600fa8b8,60.889714788891446,
,,,,65,0,65,0,,,,,,,,,,,,,,,431.00137105800013,429.60051696799974,,,Karol_P300_1,001,2023_lis_15_1503,P300_1,2020.1.2+brain0.21.g3600fa8b8,60.889714788891446,
,,,,66,0,66,0,,,,,,,,,,,,,,,433.0564558619999,431.3027923310001,,,Karol_P300_1,001,2023_lis_15_1503,P300_1,2020.1.2+brain0.21.g3600fa8b8,60.889714788891446,
,,,,67,0,67,0,,,,,,,,,,,,,,,435.1369030400001,433.36983764199977,,,Karol_P300_1,001,2023_lis_15_1503,P300_1,2020.1.2+brain0.21.g3600fa8b8,60.889714788891446,
,,,,68,0,68,0,,,,,,,,,,,,,,,437.11968363000005,435.45270884699994,,,Karol_P300_1,001,2023_lis_15_1503,P300_1,2020.1.2+brain0.21.g3600fa8b8,60.889714788891446,
,,,,69,0,69,0,,,,,,,,,,,,,,,439.05413704500006,437.4216366749997,,,Karol_P300_1,001,2023_lis_15_1503,P300_1,2020.1.2+brain0.21.g3600fa8b8,60.889714788891446,
,,,,70,0,70,0,,,,,,,,,,,,,,,440.6711537010001,439.3550844709998,,,Karol_P300_1,001,2023_lis_15_1503,P300_1,2020.1.2+brain0.21.g3600fa8b8,60.889714788891446,
,,,,71,0,71,0,,,,,,,,,,,,,,,442.259885126,440.97109698999975,,,Karol_P300_1,001,2023_lis_15_1503,P300_1,2020.1.2+brain0.21.g3600fa8b8,60.889714788891446,
,,,,72,0,72,0,,,,,,,,,,,,,,,444.2722065339999,442.5715184599999,,,Karol_P300_1,001,2023_lis_15_1503,P300_1,2020.1.2+brain0.21.g3600fa8b8,60.889714788891446,
,,,,73,0,73,0,,,,,,,,,,,,,,,446.25649518,444.5722778439999,,,Karol_P300_1,001,2023_lis_15_1503,P300_1,2020.1.2+brain0.21.g3600fa8b8,60.889714788891446,
,,,,74,0,74,0,,,,,,,,,,,,,,,448.3244751259999,446.56130891099974,,,Karol_P300_1,001,2023_lis_15_1503,P300_1,2020.1.2+brain0.21.g3600fa8b8,60.889714788891446,
,,,,75,0,75,0,,,,,,,,,,,,,,,450.3451022979998,448.6246621089999,,,Karol_P300_1,001,2023_lis_15_1503,P300_1,2020.1.2+brain0.21.g3600fa8b8,60.889714788891446,
,,,,76,0,76,0,,,,,,,,,,,,,,,452.0912496149999,450.6570219279997,,,Karol_P300_1,001,2023_lis_15_1503,P300_1,2020.1.2+brain0.21.g3600fa8b8,60.889714788891446,
,,,,77,0,77,0,,,,,,,,,,,,,,,453.6916942849998,452.3912265409999,,,Karol_P300_1,001,2023_lis_15_1503,P300_1,2020.1.2+brain0.21.g3600fa8b8,60.889714788891446,
,,,,78,0,78,0,,,,,,,,,,,,,,,455.3085250119998,453.9953772589997,,,Karol_P300_1,001,2023_lis_15_1503,P300_1,2020.1.2+brain0.21.g3600fa8b8,60.889714788891446,
,,,,79,0,79,0,,,,,,,,,,,,,,,457.331457924,455.6085004679999,,,Karol_P300_1,001,2023_lis_15_1503,P300_1,2020.1.2+brain0.21.g3600fa8b8,60.889714788891446,
,,,,80,0,80,0,,,,,,,,,,,,,,,459.19538817500006,457.64467981300004,,,Karol_P300_1,001,2023_lis_15_1503,P300_1,2020.1.2+brain0.21.g3600fa8b8,60.889714788891446,
,,,,81,0,81,0,,,,,,,,,,,,,,,460.86464888,459.51007712,,,Karol_P300_1,001,2023_lis_15_1503,P300_1,2020.1.2+brain0.21.g3600fa8b8,60.889714788891446,
,,,,82,0,82,0,,,,,,,,,,,,,,,462.827580487,461.17704779299993,,,Karol_P300_1,001,2023_lis_15_1503,P300_1,2020.1.2+brain0.21.g3600fa8b8,60.889714788891446,
,,,,83,0,83,0,,,,,,,,,,,,,,,464.6992623169999,463.12792341099976,,,Karol_P300_1,001,2023_lis_15_1503,P300_1,2020.1.2+brain0.21.g3600fa8b8,60.889714788891446,
,,,,84,0,84,0,,,,,,,,,,,,,,,466.45087061999993,465.0122803649997,,,Karol_P300_1,001,2023_lis_15_1503,P300_1,2020.1.2+brain0.21.g3600fa8b8,60.889714788891446,
,,,,85,0,85,0,,,,,,,,,,,,,,,468.3991745809999,466.7637111199997,,,Karol_P300_1,001,2023_lis_15_1503,P300_1,2020.1.2+brain0.21.g3600fa8b8,60.889714788891446,
,,,,86,0,86,0,,,,,,,,,,,,,,,470.2298906400001,468.713696496,,,Karol_P300_1,001,2023_lis_15_1503,P300_1,2020.1.2+brain0.21.g3600fa8b8,60.889714788891446,
,,,,87,0,87,0,,,,,,,,,,,,,,,472.06516891599995,470.52988562400014,,,Karol_P300_1,001,2023_lis_15_1503,P300_1,2020.1.2+brain0.21.g3600fa8b8,60.889714788891446,
,,,,88,0,88,0,,,,,,,,,,,,,,,474.0478809000001,472.38136204400007,,,Karol_P300_1,001,2023_lis_15_1503,P300_1,2020.1.2+brain0.21.g3600fa8b8,60.889714788891446,
,,,,89,0,89,0,,,,,,,,,,,,,,,475.99873222099995,474.3477918630001,,,Karol_P300_1,001,2023_lis_15_1503,P300_1,2020.1.2+brain0.21.g3600fa8b8,60.889714788891446,
,,,,90,0,90,0,,,,,,,,,,,,,,,478.0171412469999,476.29833605099975,,,Karol_P300_1,001,2023_lis_15_1503,P300_1,2020.1.2+brain0.21.g3600fa8b8,60.889714788891446,
,,,,91,0,91,0,,,,,,,,,,,,,,,479.68448686400006,478.33285725899987,,,Karol_P300_1,001,2023_lis_15_1503,P300_1,2020.1.2+brain0.21.g3600fa8b8,60.889714788891446,
,,,,92,0,92,0,,,,,,,,,,,,,,,481.73567798700014,480.00041802199985,,,Karol_P300_1,001,2023_lis_15_1503,P300_1,2020.1.2+brain0.21.g3600fa8b8,60.889714788891446,
,,,,93,0,93,0,,,,,,,,,,,,,,,483.78525314499984,482.0519179759999,,,Karol_P300_1,001,2023_lis_15_1503,P300_1,2020.1.2+brain0.21.g3600fa8b8,60.889714788891446,
,,,,94,0,94,0,,,,,,,,,,,,,,,485.735822138,484.08901330499975,,,Karol_P300_1,001,2023_lis_15_1503,P300_1,2020.1.2+brain0.21.g3600fa8b8,60.889714788891446,
,,,,95,0,95,0,,,,,,,,,,,,,,,487.48655173,486.0392119180001,,,Karol_P300_1,001,2023_lis_15_1503,P300_1,2020.1.2+brain0.21.g3600fa8b8,60.889714788891446,
,,,,96,0,96,0,,,,,,,,,,,,,,,489.0384890219998,487.8065174809999,,,Karol_P300_1,001,2023_lis_15_1503,P300_1,2020.1.2+brain0.21.g3600fa8b8,60.889714788891446,
,,,,97,0,97,0,,,,,,,,,,,,,,,490.65433085999985,489.3528924100001,,,Karol_P300_1,001,2023_lis_15_1503,P300_1,2020.1.2+brain0.21.g3600fa8b8,60.889714788891446,
,,,,98,0,98,0,,,,,,,,,,,,,,,492.441799921,490.95405957699995,,,Karol_P300_1,001,2023_lis_15_1503,P300_1,2020.1.2+brain0.21.g3600fa8b8,60.889714788891446,
,,,,99,0,99,0,,,,,,,,,,,,,,,494.5069115870001,492.75588846599976,,,Karol_P300_1,001,2023_lis_15_1503,P300_1,2020.1.2+brain0.21.g3600fa8b8,60.889714788891446,
,,,,100,0,100,0,,,,,,,,,,,,,,,496.07162315000005,494.80494500899977,,,Karol_P300_1,001,2023_lis_15_1503,P300_1,2020.1.2+brain0.21.g3600fa8b8,60.889714788891446,
,,,,101,0,101,0,,,,,,,,,,,,,,,497.67204658799983,496.371523111,,,Karol_P300_1,001,2023_lis_15_1503,P300_1,2020.1.2+brain0.21.g3600fa8b8,60.889714788891446,
,,,,102,0,102,0,,,,,,,,,,,,,,,499.2256941229998,497.97658412600003,,,Karol_P300_1,001,2023_lis_15_1503,P300_1,2020.1.2+brain0.21.g3600fa8b8,60.889714788891446,
,,,,103,0,103,0,,,,,,,,,,,,,,,500.9595341969998,499.53892570300013,,,Karol_P300_1,001,2023_lis_15_1503,P300_1,2020.1.2+brain0.21.g3600fa8b8,60.889714788891446,
,,,,104,0,104,0,,,,,,,,,,,,,,,502.93995512699985,501.2742157970001,,,Karol_P300_1,001,2023_lis_15_1503,P300_1,2020.1.2+brain0.21.g3600fa8b8,60.889714788891446,
,,,,105,0,105,0,,,,,,,,,,,,,,,504.8582632509997,503.240152158,,,Karol_P300_1,001,2023_lis_15_1503,P300_1,2020.1.2+brain0.21.g3600fa8b8,60.889714788891446,
,,,,106,0,106,0,,,,,,,,,,,,,,,506.47637686300004,505.1586579059999,,,Karol_P300_1,001,2023_lis_15_1503,P300_1,2020.1.2+brain0.21.g3600fa8b8,60.889714788891446,
,,,,107,0,107,0,,,,,,,,,,,,,,,508.5793964899999,506.7920861550001,,,Karol_P300_1,001,2023_lis_15_1503,P300_1,2020.1.2+brain0.21.g3600fa8b8,60.889714788891446,
,,,,108,0,108,0,,,,,,,,,,,,,,,510.40910580499985,508.895202745,,,Karol_P300_1,001,2023_lis_15_1503,P300_1,2020.1.2+brain0.21.g3600fa8b8,60.889714788891446,
,,,,109,0,109,0,,,,,,,,,,,,,,,511.89449651799987,510.70907433599996,,,Karol_P300_1,001,2023_lis_15_1503,P300_1,2020.1.2+brain0.21.g3600fa8b8,60.889714788891446,
,,,,110,0,110,0,,,,,,,,,,,,,,,513.5098915230001,512.1968710709998,,,Karol_P300_1,001,2023_lis_15_1503,P300_1,2020.1.2+brain0.21.g3600fa8b8,60.889714788891446,
,,,,111,0,111,0,,,,,,,,,,,,,,,515.2605496840001,513.8100072259999,,,Karol_P300_1,001,2023_lis_15_1503,P300_1,2020.1.2+brain0.21.g3600fa8b8,60.889714788891446,
,,,,112,0,112,0,,,,,,,,,,,,,,,516.8829529519999,515.560593225,,,Karol_P300_1,001,2023_lis_15_1503,P300_1,2020.1.2+brain0.21.g3600fa8b8,60.889714788891446,
,,,,113,0,113,0,,,,,,,,,,,,,,,518.446422474,517.1959370469999,,,Karol_P300_1,001,2023_lis_15_1503,P300_1,2020.1.2+brain0.21.g3600fa8b8,60.889714788891446,
,,,,114,0,114,0,,,,,,,,,,,,,,,520.3822594849998,518.7469755490001,,,Karol_P300_1,001,2023_lis_15_1503,P300_1,2020.1.2+brain0.21.g3600fa8b8,60.889714788891446,
,,,,115,0,115,0,,,,,,,,,,,,,,,522.1982141079998,520.6978171719998,,,Karol_P300_1,001,2023_lis_15_1503,P300_1,2020.1.2+brain0.21.g3600fa8b8,60.889714788891446,
,,,,116,0,116,0,,,,,,,,,,,,,,,523.7299070260001,522.5137098770001,,,Karol_P300_1,001,2023_lis_15_1503,P300_1,2020.1.2+brain0.21.g3600fa8b8,60.889714788891446,
,,,,117,0,117,0,,,,,,,,,,,,,,,525.6007440230001,524.0298470299999,,,Karol_P300_1,001,2023_lis_15_1503,P300_1,2020.1.2+brain0.21.g3600fa8b8,60.889714788891446,
,,,,118,0,118,0,,,,,,,,,,,,,,,527.2165578489999,525.9147398519999,,,Karol_P300_1,001,2023_lis_15_1503,P300_1,2020.1.2+brain0.21.g3600fa8b8,60.889714788891446,
,,,,119,0,119,0,,,,,,,,,,,,,,,529.083378586,527.5172121810001,,,Karol_P300_1,001,2023_lis_15_1503,P300_1,2020.1.2+brain0.21.g3600fa8b8,60.889714788891446,
,,,,120,0,120,0,,,,,,,,,,,,,,,531.1505165789999,529.3989435799999,,,Karol_P300_1,001,2023_lis_15_1503,P300_1,2020.1.2+brain0.21.g3600fa8b8,60.889714788891446,
,,,,121,0,121,0,,,,,,,,,,,,,,,532.9700191739998,531.466676135,,,Karol_P300_1,001,2023_lis_15_1503,P300_1,2020.1.2+brain0.21.g3600fa8b8,60.889714788891446,
,,,,122,0,122,0,,,,,,,,,,,,,,,535.0345355219997,533.2831355339999,,,Karol_P300_1,001,2023_lis_15_1503,P300_1,2020.1.2+brain0.21.g3600fa8b8,60.889714788891446,
,,,,123,0,123,0,,,,,,,,,,,,,,,536.769663042,535.335496104,,,Karol_P300_1,001,2023_lis_15_1503,P300_1,2020.1.2+brain0.21.g3600fa8b8,60.889714788891446,
,,,,124,0,124,0,,,,,,,,,,,,,,,538.7357723300001,537.0851531929998,,,Karol_P300_1,001,2023_lis_15_1503,P300_1,2020.1.2+brain0.21.g3600fa8b8,60.889714788891446,
,,,,125,0,125,0,,,,,,,,,,,,,,,540.4886455599999,539.0359858309998,,,Karol_P300_1,001,2023_lis_15_1503,P300_1,2020.1.2+brain0.21.g3600fa8b8,60.889714788891446,
,,,,126,0,126,0,,,,,,,,,,,,,,,542.1692166009998,540.787147261,,,Karol_P300_1,001,2023_lis_15_1503,P300_1,2020.1.2+brain0.21.g3600fa8b8,60.889714788891446,
,,,,127,0,127,0,,,,,,,,,,,,,,,544.2397886849999,542.4703084389998,,,Karol_P300_1,001,2023_lis_15_1503,P300_1,2020.1.2+brain0.21.g3600fa8b8,60.889714788891446,
,,,,128,0,128,0,,,,,,,,,,,,,,,545.9701034989998,544.5534715670001,,,Karol_P300_1,001,2023_lis_15_1503,P300_1,2020.1.2+brain0.21.g3600fa8b8,60.889714788891446,
,,,,129,0,129,0,,,,,,,,,,,,,,,547.939470368,546.270147961,,,Karol_P300_1,001,2023_lis_15_1503,P300_1,2020.1.2+brain0.21.g3600fa8b8,60.889714788891446,
,,,,130,0,130,0,,,,,,,,,,,,,,,549.6881237379998,548.2412358829997,,,Karol_P300_1,001,2023_lis_15_1503,P300_1,2020.1.2+brain0.21.g3600fa8b8,60.889714788891446,
,,,,131,0,131,0,,,,,,,,,,,,,,,551.1724688869999,549.9930752820001,,,Karol_P300_1,001,2023_lis_15_1503,P300_1,2020.1.2+brain0.21.g3600fa8b8,60.889714788891446,
,,,,132,0,132,0,,,,,,,,,,,,,,,552.7396059809998,551.4773517909998,,,Karol_P300_1,001,2023_lis_15_1503,P300_1,2020.1.2+brain0.21.g3600fa8b8,60.889714788891446,
,,,,133,0,133,0,,,,,,,,,,,,,,,554.6591249419998,553.0445528079999,,,Karol_P300_1,001,2023_lis_15_1503,P300_1,2020.1.2+brain0.21.g3600fa8b8,60.889714788891446,
,,,,134,0,134,0,,,,,,,,,,,,,,,556.7103308689998,554.973327012,,,Karol_P300_1,001,2023_lis_15_1503,P300_1,2020.1.2+brain0.21.g3600fa8b8,60.889714788891446,
,,,,135,0,135,0,,,,,,,,,,,,,,,558.225083755,557.0244762930001,,,Karol_P300_1,001,2023_lis_15_1503,P300_1,2020.1.2+brain0.21.g3600fa8b8,60.889714788891446,
,,,,136,0,136,0,,,,,,,,,,,,,,,560.212050348,558.5265300020001,,,Karol_P300_1,001,2023_lis_15_1503,P300_1,2020.1.2+brain0.21.g3600fa8b8,60.889714788891446,
,,,,137,0,137,0,,,,,,,,,,,,,,,562.2132201949998,560.5297004399999,,,Karol_P300_1,001,2023_lis_15_1503,P300_1,2020.1.2+brain0.21.g3600fa8b8,60.889714788891446,
,,,,138,0,138,0,,,,,,,,,,,,,,,563.995583639,562.5286034350002,,,Karol_P300_1,001,2023_lis_15_1503,P300_1,2020.1.2+brain0.21.g3600fa8b8,60.889714788891446,
,,,,139,0,139,0,,,,,,,,,,,,,,,565.69435651,564.2930996340001,,,Karol_P300_1,001,2023_lis_15_1503,P300_1,2020.1.2+brain0.21.g3600fa8b8,60.889714788891446,
,,,,140,0,140,0,,,,,,,,,,,,,,,567.1938049579999,565.9934263639998,,,Karol_P300_1,001,2023_lis_15_1503,P300_1,2020.1.2+brain0.21.g3600fa8b8,60.889714788891446,
,,,,141,0,141,0,,,,,,,,,,,,,,,569.2806613489997,567.493918832,,,Karol_P300_1,001,2023_lis_15_1503,P300_1,2020.1.2+brain0.21.g3600fa8b8,60.889714788891446,
,,,,142,0,142,0,,,,,,,,,,,,,,,570.9816615509999,569.5953444890001,,,Karol_P300_1,001,2023_lis_15_1503,P300_1,2020.1.2+brain0.21.g3600fa8b8,60.889714788891446,
,,,,143,0,143,0,,,,,,,,,,,,,,,573.0322127519999,571.295442349,,,Karol_P300_1,001,2023_lis_15_1503,P300_1,2020.1.2+brain0.21.g3600fa8b8,60.889714788891446,
,,,,144,0,144,0,,,,,,,,,,,,,,,575.1007780149998,573.3472659879999,,,Karol_P300_1,001,2023_lis_15_1503,P300_1,2020.1.2+brain0.21.g3600fa8b8,60.889714788891446,
,,,,145,0,145,0,,,,,,,,,,,,,,,576.7972693399997,575.4130907549998,,,Karol_P300_1,001,2023_lis_15_1503,P300_1,2020.1.2+brain0.21.g3600fa8b8,60.889714788891446,
,,,,146,0,146,0,,,,,,,,,,,,,,,578.5306714859998,577.097341059,,,Karol_P300_1,001,2023_lis_15_1503,P300_1,2020.1.2+brain0.21.g3600fa8b8,60.889714788891446,
,,,,147,0,147,0,,,,,,,,,,,,,,,580.2349139449998,578.8304249299999,,,Karol_P300_1,001,2023_lis_15_1503,P300_1,2020.1.2+brain0.21.g3600fa8b8,60.889714788891446,
,,,,148,0,148,0,,,,,,,,,,,,,,,581.7496619059998,580.5481391160001,,,Karol_P300_1,001,2023_lis_15_1503,P300_1,2020.1.2+brain0.21.g3600fa8b8,60.889714788891446,
,,,,149,0,149,0,,,,,,,,,,,,,,,583.5157663790001,582.0652564239999,,,Karol_P300_1,001,2023_lis_15_1503,P300_1,2020.1.2+brain0.21.g3600fa8b8,60.889714788891446,
,,,,150,0,150,0,,,,,,,,,,,,,,,585.0004002309997,583.8170774089999,,,Karol_P300_1,001,2023_lis_15_1503,P300_1,2020.1.2+brain0.21.g3600fa8b8,60.889714788891446,
,,,,151,0,151,0,,,,,,,,,,,,,,,586.7170383419998,585.3006250539997,,,Karol_P300_1,001,2023_lis_15_1503,P300_1,2020.1.2+brain0.21.g3600fa8b8,60.889714788891446,
,,,,152,0,152,0,,,,,,,,,,,,,,,588.584013739,587.0187190199999,,,Karol_P300_1,001,2023_lis_15_1503,P300_1,2020.1.2+brain0.21.g3600fa8b8,60.889714788891446,
,,,,153,0,153,0,,,,,,,,,,,,,,,590.3859124380001,588.8854320629998,,,Karol_P300_1,001,2023_lis_15_1503,P300_1,2020.1.2+brain0.21.g3600fa8b8,60.889714788891446,
,,,,154,0,154,0,,,,,,,,,,,,,,,592.1036667059998,590.6852229699998,,,Karol_P300_1,001,2023_lis_15_1503,P300_1,2020.1.2+brain0.21.g3600fa8b8,60.889714788891446,
,,,,155,0,155,0,,,,,,,,,,,,,,,594.136799418,592.4219828649998,,,Karol_P300_1,001,2023_lis_15_1503,P300_1,2020.1.2+brain0.21.g3600fa8b8,60.889714788891446,
,,,,156,0,156,0,,,,,,,,,,,,,,,596.0554892360001,594.4524421629999,,,Karol_P300_1,001,2023_lis_15_1503,P300_1,2020.1.2+brain0.21.g3600fa8b8,60.889714788891446,
,,,,157,0,157,0,,,,,,,,,,,,,,,597.6371057649999,596.3583923820001,,,Karol_P300_1,001,2023_lis_15_1503,P300_1,2020.1.2+brain0.21.g3600fa8b8,60.889714788891446,
,,,,158,0,158,0,,,,,,,,,,,,,,,599.1378815789999,597.9383801630001,,,Karol_P300_1,001,2023_lis_15_1503,P300_1,2020.1.2+brain0.21.g3600fa8b8,60.889714788891446,
,,,,159,0,159,0,,,,,,,,,,,,,,,600.892536715,599.4377520449998,,,Karol_P300_1,001,2023_lis_15_1503,P300_1,2020.1.2+brain0.21.g3600fa8b8,60.889714788891446,
,,,,160,0,160,0,,,,,,,,,,,,,,,602.3887933219999,601.205686886,,,Karol_P300_1,001,2023_lis_15_1503,P300_1,2020.1.2+brain0.21.g3600fa8b8,60.889714788891446,
,,,,161,0,161,0,,,,,,,,,,,,,,,604.055534737,602.691653852,,,Karol_P300_1,001,2023_lis_15_1503,P300_1,2020.1.2+brain0.21.g3600fa8b8,60.889714788891446,
,,,,162,0,162,0,,,,,,,,,,,,,,,605.9099748069998,604.3570170079997,,,Karol_P300_1,001,2023_lis_15_1503,P300_1,2020.1.2+brain0.21.g3600fa8b8,60.889714788891446,
,,,,163,0,163,0,,,,,,,,,,,,,,,607.6956896199999,606.207088444,,,Karol_P300_1,001,2023_lis_15_1503,P300_1,2020.1.2+brain0.21.g3600fa8b8,60.889714788891446,
,,,,164,0,164,0,,,,,,,,,,,,,,,609.6114185749998,608.0109968259999,,,Karol_P300_1,001,2023_lis_15_1503,P300_1,2020.1.2+brain0.21.g3600fa8b8,60.889714788891446,
,,,,165,0,165,0,,,,,,,,,,,,,,,611.2078111619999,609.9254714129997,,,Karol_P300_1,001,2023_lis_15_1503,P300_1,2020.1.2+brain0.21.g3600fa8b8,60.889714788891446,
,,,,166,0,166,0,,,,,,,,,,,,,,,613.0087868639998,611.5109638969998,,,Karol_P300_1,001,2023_lis_15_1503,P300_1,2020.1.2+brain0.21.g3600fa8b8,60.889714788891446,
,,,,167,0,167,0,,,,,,,,,,,,,,,615.0102920499999,613.3122589710001,,,Karol_P300_1,001,2023_lis_15_1503,P300_1,2020.1.2+brain0.21.g3600fa8b8,60.889714788891446,
,,,,168,0,168,0,,,,,,,,,,,,,,,616.9594094280001,615.3273379759999,,,Karol_P300_1,001,2023_lis_15_1503,P300_1,2020.1.2+brain0.21.g3600fa8b8,60.889714788891446,
,,,,169,0,169,0,,,,,,,,,,,,,,,619.0320910199998,617.2634719289999,,,Karol_P300_1,001,2023_lis_15_1503,P300_1,2020.1.2+brain0.21.g3600fa8b8,60.889714788891446,
,,,,170,0,170,0,,,,,,,,,,,,,,,620.747670832,619.3442258119999,,,Karol_P300_1,001,2023_lis_15_1503,P300_1,2020.1.2+brain0.21.g3600fa8b8,60.889714788891446,
,,,,171,0,171,0,,,,,,,,,,,,,,,622.7285762289998,621.0490723429998,,,Karol_P300_1,001,2023_lis_15_1503,P300_1,2020.1.2+brain0.21.g3600fa8b8,60.889714788891446,
,,,,172,0,172,0,,,,,,,,,,,,,,,624.2467438029998,623.031328776,,,Karol_P300_1,001,2023_lis_15_1503,P300_1,2020.1.2+brain0.21.g3600fa8b8,60.889714788891446,
,,,,173,0,173,0,,,,,,,,,,,,,,,625.812041354,624.549671836,,,Karol_P300_1,001,2023_lis_15_1503,P300_1,2020.1.2+brain0.21.g3600fa8b8,60.889714788891446,
,,,,174,0,174,0,,,,,,,,,,,,,,,627.5469805469997,626.1121333450001,,,Karol_P300_1,001,2023_lis_15_1503,P300_1,2020.1.2+brain0.21.g3600fa8b8,60.889714788891446,
,,,,175,0,175,0,,,,,,,,,,,,,,,629.0983067469997,627.8492997109997,,,Karol_P300_1,001,2023_lis_15_1503,P300_1,2020.1.2+brain0.21.g3600fa8b8,60.889714788891446,
,,,,176,0,176,0,,,,,,,,,,,,,,,631.2026842089999,629.4175283609998,,,Karol_P300_1,001,2023_lis_15_1503,P300_1,2020.1.2+brain0.21.g3600fa8b8,60.889714788891446,
,,,,177,0,177,0,,,,,,,,,,,,,,,632.7505895429999,631.5185480119999,,,Karol_P300_1,001,2023_lis_15_1503,P300_1,2020.1.2+brain0.21.g3600fa8b8,60.889714788891446,
,,,,178,0,178,0,,,,,,,,,,,,,,,634.7167851609997,633.0646605699999,,,Karol_P300_1,001,2023_lis_15_1503,P300_1,2020.1.2+brain0.21.g3600fa8b8,60.889714788891446,
,,,,179,0,179,0,,,,,,,,,,,,,,,636.7172222539998,635.0186927649997,,,Karol_P300_1,001,2023_lis_15_1503,P300_1,2020.1.2+brain0.21.g3600fa8b8,60.889714788891446,
,,,,180,0,180,0,,,,,,,,,,,,,,,638.4705353639997,637.0327492639999,,,Karol_P300_1,001,2023_lis_15_1503,P300_1,2020.1.2+brain0.21.g3600fa8b8,60.889714788891446,
,,,,181,0,181,0,,,,,,,,,,,,,,,640.5344496069997,638.7831734379997,,,Karol_P300_1,001,2023_lis_15_1503,P300_1,2020.1.2+brain0.21.g3600fa8b8,60.889714788891446,
,,,,182,0,182,0,,,,,,,,,,,,,,,642.300566596,640.8338498819999,,,Karol_P300_1,001,2023_lis_15_1503,P300_1,2020.1.2+brain0.21.g3600fa8b8,60.889714788891446,
,,,,183,0,183,0,,,,,,,,,,,,,,,643.8708386979997,642.600762997,,,Karol_P300_1,001,2023_lis_15_1503,P300_1,2020.1.2+brain0.21.g3600fa8b8,60.889714788891446,
,,,,184,0,184,0,,,,,,,,,,,,,,,645.5521573030001,644.1884098830001,,,Karol_P300_1,001,2023_lis_15_1503,P300_1,2020.1.2+brain0.21.g3600fa8b8,60.889714788891446,
,,,,185,0,185,0,,,,,,,,,,,,,,,647.4535826249999,645.851815339,,,Karol_P300_1,001,2023_lis_15_1503,P300_1,2020.1.2+brain0.21.g3600fa8b8,60.889714788891446,
,,,,186,0,186,0,,,,,,,,,,,,,,,648.9868601379999,647.7523587979999,,,Karol_P300_1,001,2023_lis_15_1503,P300_1,2020.1.2+brain0.21.g3600fa8b8,60.889714788891446,
,,,,187,0,187,0,,,,,,,,,,,,,,,650.6701270989997,649.287071664,,,Karol_P300_1,001,2023_lis_15_1503,P300_1,2020.1.2+brain0.21.g3600fa8b8,60.889714788891446,
,,,,188,0,188,0,,,,,,,,,,,,,,,652.2041728439999,650.9702427090001,,,Karol_P300_1,001,2023_lis_15_1503,P300_1,2020.1.2+brain0.21.g3600fa8b8,60.889714788891446,
,,,,189,0,189,0,,,,,,,,,,,,,,,653.904758488,652.503915109,,,Karol_P300_1,001,2023_lis_15_1503,P300_1,2020.1.2+brain0.21.g3600fa8b8,60.889714788891446,
,,,,190,0,190,0,,,,,,,,,,,,,,,655.9553297879997,654.2048062499998,,,Karol_P300_1,001,2023_lis_15_1503,P300_1,2020.1.2+brain0.21.g3600fa8b8,60.889714788891446,
,,,,191,0,191,0,,,,,,,,,,,,,,,657.7567528549998,656.2567044530001,,,Karol_P300_1,001,2023_lis_15_1503,P300_1,2020.1.2+brain0.21.g3600fa8b8,60.889714788891446,
,,,,192,0,192,0,,,,,,,,,,,,,,,659.422909725,658.0560283569998,,,Karol_P300_1,001,2023_lis_15_1503,P300_1,2020.1.2+brain0.21.g3600fa8b8,60.889714788891446,
,,,,193,0,193,0,,,,,,,,,,,,,,,660.9410411270001,659.7228963799998,,,Karol_P300_1,001,2023_lis_15_1503,P300_1,2020.1.2+brain0.21.g3600fa8b8,60.889714788891446,
,,,,194,0,194,0,,,,,,,,,,,,,,,662.5946153669997,661.244302353,,,Karol_P300_1,001,2023_lis_15_1503,P300_1,2020.1.2+brain0.21.g3600fa8b8,60.889714788891446,
,,,,195,0,195,0,,,,,,,,,,,,,,,664.3912728109999,662.910303231,,,Karol_P300_1,001,2023_lis_15_1503,P300_1,2020.1.2+brain0.21.g3600fa8b8,60.889714788891446,
,,,,196,0,196,0,,,,,,,,,,,,,,,666.3255609819998,664.6911636310001,,,Karol_P300_1,001,2023_lis_15_1503,P300_1,2020.1.2+brain0.21.g3600fa8b8,60.889714788891446,
,,,,197,0,197,0,,,,,,,,,,,,,,,668.0641175149999,666.6254344859999,,,Karol_P300_1,001,2023_lis_15_1503,P300_1,2020.1.2+brain0.21.g3600fa8b8,60.889714788891446,
,,,,198,0,198,0,,,,,,,,,,,,,,,669.926928934,668.3759958669998,,,Karol_P300_1,001,2023_lis_15_1503,P300_1,2020.1.2+brain0.21.g3600fa8b8,60.889714788891446,
,,,,199,0,199,0,,,,,,,,,,,,,,,671.727173966,670.226607862,,,Karol_P300_1,001,2023_lis_15_1503,P300_1,2020.1.2+brain0.21.g3600fa8b8,60.889714788891446,
,,,,200,0,200,0,,,,,,,,,,,,,,,673.530198421,672.029611121,,,Karol_P300_1,001,2023_lis_15_1503,P300_1,2020.1.2+brain0.21.g3600fa8b8,60.889714788891446,
,,,,201,0,201,0,,,,,,,,,,,,,,,675.3613167019998,673.8444672989999,,,Karol_P300_1,001,2023_lis_15_1503,P300_1,2020.1.2+brain0.21.g3600fa8b8,60.889714788891446,
,,,,202,0,202,0,,,,,,,,,,,,,,,676.9801577049998,675.663501942,,,Karol_P300_1,001,2023_lis_15_1503,P300_1,2020.1.2+brain0.21.g3600fa8b8,60.889714788891446,
,,,,203,0,203,0,,,,,,,,,,,,,,,678.7622970510001,677.2963787519998,,,Karol_P300_1,001,2023_lis_15_1503,P300_1,2020.1.2+brain0.21.g3600fa8b8,60.889714788891446,
,,,,204,0,204,0,,,,,,,,,,,,,,,680.2628554519997,679.0628110899997,,,Karol_P300_1,001,2023_lis_15_1503,P300_1,2020.1.2+brain0.21.g3600fa8b8,60.889714788891446,
,,,,205,0,205,0,,,,,,,,,,,,,,,681.8137937910001,680.562935686,,,Karol_P300_1,001,2023_lis_15_1503,P300_1,2020.1.2+brain0.21.g3600fa8b8,60.889714788891446,
,,,,206,0,206,0,,,,,,,,,,,,,,,683.7984017839999,682.1133272120001,,,Karol_P300_1,001,2023_lis_15_1503,P300_1,2020.1.2+brain0.21.g3600fa8b8,60.889714788891446,
,,,,207,0,207,0,,,,,,,,,,,,,,,685.7863499279997,684.1002850330001,,,Karol_P300_1,001,2023_lis_15_1503,P300_1,2020.1.2+brain0.21.g3600fa8b8,60.889714788891446,
,,,,208,0,208,0,,,,,,,,,,,,,,,687.7819569210001,686.0994259619997,,,Karol_P300_1,001,2023_lis_15_1503,P300_1,2020.1.2+brain0.21.g3600fa8b8,60.889714788891446,
,,,,209,0,209,0,,,,,,,,,,,,,,,689.3508147899997,688.0819697299999,,,Karol_P300_1,001,2023_lis_15_1503,P300_1,2020.1.2+brain0.21.g3600fa8b8,60.889714788891446,
,,,,210,0,210,0,,,,,,,,,,,,,,,691.1526236659997,689.66740919,,,Karol_P300_1,001,2023_lis_15_1503,P300_1,2020.1.2+brain0.21.g3600fa8b8,60.889714788891446,
,,,,211,0,211,0,,,,,,,,,,,,,,,692.7681489729998,691.466747725,,,Karol_P300_1,001,2023_lis_15_1503,P300_1,2020.1.2+brain0.21.g3600fa8b8,60.889714788891446,
,,,,212,0,212,0,,,,,,,,,,,,,,,694.834504428,693.0835867649998,,,Karol_P300_1,001,2023_lis_15_1503,P300_1,2020.1.2+brain0.21.g3600fa8b8,60.889714788891446,
,,,,213,0,213,0,,,,,,,,,,,,,,,696.4200368329998,695.1345454550001,,,Karol_P300_1,001,2023_lis_15_1503,P300_1,2020.1.2+brain0.21.g3600fa8b8,60.889714788891446,
,,,,214,0,214,0,,,,,,,,,,,,,,,698.3856864889999,696.7387318010001,,,Karol_P300_1,001,2023_lis_15_1503,P300_1,2020.1.2+brain0.21.g3600fa8b8,60.889714788891446,
,,,,215,0,215,0,,,,,,,,,,,,,,,700.2363401160001,698.6856885060001,,,Karol_P300_1,001,2023_lis_15_1503,P300_1,2020.1.2+brain0.21.g3600fa8b8,60.889714788891446,
,,,,216,0,216,0,,,,,,,,,,,,,,,702.0571404080001,700.5409550599998,,,Karol_P300_1,001,2023_lis_15_1503,P300_1,2020.1.2+brain0.21.g3600fa8b8,60.889714788891446,
,,,,217,0,217,0,,,,,,,,,,,,,,,703.8727221509998,702.374051411,,,Karol_P300_1,001,2023_lis_15_1503,P300_1,2020.1.2+brain0.21.g3600fa8b8,60.889714788891446,
,,,,218,0,218,0,,,,,,,,,,,,,,,705.8046430919999,704.1886341479999,,,Karol_P300_1,001,2023_lis_15_1503,P300_1,2020.1.2+brain0.21.g3600fa8b8,60.889714788891446,
,,,,219,0,219,0,,,,,,,,,,,,,,,707.505271563,706.1052937670001,,,Karol_P300_1,001,2023_lis_15_1503,P300_1,2020.1.2+brain0.21.g3600fa8b8,60.889714788891446,
,,,,220,0,220,0,,,,,,,,,,,,,,,709.139931191,707.8052693569998,,,Karol_P300_1,001,2023_lis_15_1503,P300_1,2020.1.2+brain0.21.g3600fa8b8,60.889714788891446,
,,,,221,0,221,0,,,,,,,,,,,,,,,710.841998331,709.4417985,,,Karol_P300_1,001,2023_lis_15_1503,P300_1,2020.1.2+brain0.21.g3600fa8b8,60.889714788891446,
,,,,222,0,222,0,,,,,,,,,,,,,,,712.5070864690001,711.1571341039999,,,Karol_P300_1,001,2023_lis_15_1503,P300_1,2020.1.2+brain0.21.g3600fa8b8,60.889714788891446,
,,,,223,0,223,0,,,,,,,,,,,,,,,714.3904422699998,712.8091732970001,,,Karol_P300_1,001,2023_lis_15_1503,P300_1,2020.1.2+brain0.21.g3600fa8b8,60.889714788891446,
,,,,224,0,224,0,,,,,,,,,,,,,,,716.0788759019997,714.6905212030001,,,Karol_P300_1,001,2023_lis_15_1503,P300_1,2020.1.2+brain0.21.g3600fa8b8,60.889714788891446,
,,,,225,0,225,0,,,,,,,,,,,,,,,717.7086372579997,716.3909757379997,,,Karol_P300_1,001,2023_lis_15_1503,P300_1,2020.1.2+brain0.21.g3600fa8b8,60.889714788891446,
,,,,226,0,226,0,,,,,,,,,,,,,,,719.7262333419999,718.0114137309997,,,Karol_P300_1,001,2023_lis_15_1503,P300_1,2020.1.2+brain0.21.g3600fa8b8,60.889714788891446,
,,,,227,0,227,0,,,,,,,,,,,,,,,721.3432412369998,720.0265200009999,,,Karol_P300_1,001,2023_lis_15_1503,P300_1,2020.1.2+brain0.21.g3600fa8b8,60.889714788891446,
,,,,228,0,228,0,,,,,,,,,,,,,,,722.993133301,721.642726693,,,Karol_P300_1,001,2023_lis_15_1503,P300_1,2020.1.2+brain0.21.g3600fa8b8,60.889714788891446,
,,,,229,0,229,0,,,,,,,,,,,,,,,725.0470092350001,723.2984213549998,,,Karol_P300_1,001,2023_lis_15_1503,P300_1,2020.1.2+brain0.21.g3600fa8b8,60.889714788891446,
,,,,230,0,230,0,,,,,,,,,,,,,,,727.04500839,725.349218239,,,Karol_P300_1,001,2023_lis_15_1503,P300_1,2020.1.2+brain0.21.g3600fa8b8,60.889714788891446,
,,,,231,0,231,0,,,,,,,,,,,,,,,728.9459554,727.3493849839997,,,Karol_P300_1,001,2023_lis_15_1503,P300_1,2020.1.2+brain0.21.g3600fa8b8,60.889714788891446,
,,,,232,0,232,0,,,,,,,,,,,,,,,730.4958533469999,729.245716851,,,Karol_P300_1,001,2023_lis_15_1503,P300_1,2020.1.2+brain0.21.g3600fa8b8,60.889714788891446,
,,,,233,0,233,0,,,,,,,,,,,,,,,732.5130121540001,730.796342305,,,Karol_P300_1,001,2023_lis_15_1503,P300_1,2020.1.2+brain0.21.g3600fa8b8,60.889714788891446,
,,,,234,0,234,0,,,,,,,,,,,,,,,734.3140038359998,732.812936497,,,Karol_P300_1,001,2023_lis_15_1503,P300_1,2020.1.2+brain0.21.g3600fa8b8,60.889714788891446,
,,,,235,0,235,0,,,,,,,,,,,,,,,735.9345789710001,734.6136823920001,,,Karol_P300_1,001,2023_lis_15_1503,P300_1,2020.1.2+brain0.21.g3600fa8b8,60.889714788891446,
,,,,236,0,236,0,,,,,,,,,,,,,,,737.4488892019999,736.2489369989999,,,Karol_P300_1,001,2023_lis_15_1503,P300_1,2020.1.2+brain0.21.g3600fa8b8,60.889714788891446,
,,,,237,0,237,0,,,,,,,,,,,,,,,739.0165021299999,737.7493646140001,,,Karol_P300_1,001,2023_lis_15_1503,P300_1,2020.1.2+brain0.21.g3600fa8b8,60.889714788891446,
,,,,238,0,238,0,,,,,,,,,,,,,,,740.9025102969999,739.3206051719999,,,Karol_P300_1,001,2023_lis_15_1503,P300_1,2020.1.2+brain0.21.g3600fa8b8,60.889714788891446,
,,,,239,0,239,0,,,,,,,,,,,,,,,742.933073612,741.2176381479999,,,Karol_P300_1,001,2023_lis_15_1503,P300_1,2020.1.2+brain0.21.g3600fa8b8,60.889714788891446,
,,,,240,0,240,0,,,,,,,,,,,,,,,744.4700444249997,743.233003761,,,Karol_P300_1,001,2023_lis_15_1503,P300_1,2020.1.2+brain0.21.g3600fa8b8,60.889714788891446,
,,,,241,0,241,0,,,,,,,,,,,,,,,746.1186742589998,744.7708608779999,,,Karol_P300_1,001,2023_lis_15_1503,P300_1,2020.1.2+brain0.21.g3600fa8b8,60.889714788891446,
,,,,242,0,242,0,,,,,,,,,,,,,,,748.034676705,746.4186453879997,,,Karol_P300_1,001,2023_lis_15_1503,P300_1,2020.1.2+brain0.21.g3600fa8b8,60.889714788891446,
,,,,243,0,243,0,,,,,,,,,,,,,,,750.0697124099997,748.3355308639998,,,Karol_P300_1,001,2023_lis_15_1503,P300_1,2020.1.2+brain0.21.g3600fa8b8,60.889714788891446,
,,,,244,0,244,0,,,,,,,,,,,,,,,752.003490086,750.3705060379998,,,Karol_P300_1,001,2023_lis_15_1503,P300_1,2020.1.2+brain0.21.g3600fa8b8,60.889714788891446,
,,,,245,0,245,0,,,,,,,,,,,,,,,753.6030400219997,752.3025513769999,,,Karol_P300_1,001,2023_lis_15_1503,P300_1,2020.1.2+brain0.21.g3600fa8b8,60.889714788891446,
,,,,246,0,246,0,,,,,,,,,,,,,,,755.2578331659997,753.904510546,,,Karol_P300_1,001,2023_lis_15_1503,P300_1,2020.1.2+brain0.21.g3600fa8b8,60.889714788891446,
,,,,247,0,247,0,,,,,,,,,,,,,,,757.1410498750001,755.5723238169999,,,Karol_P300_1,001,2023_lis_15_1503,P300_1,2020.1.2+brain0.21.g3600fa8b8,60.889714788891446,
,,,,248,0,248,0,,,,,,,,,,,,,,,759.0431623250001,757.454284546,,,Karol_P300_1,001,2023_lis_15_1503,P300_1,2020.1.2+brain0.21.g3600fa8b8,60.889714788891446,
,,,,249,0,249,0,,,,,,,,,,,,,,,760.872252954,759.3597599760001,,,Karol_P300_1,001,2023_lis_15_1503,P300_1,2020.1.2+brain0.21.g3600fa8b8,60.889714788891446,
,,,,250,0,250,0,,,,,,,,,,,,,,,762.8228880309998,761.1720906129999,,,Karol_P300_1,001,2023_lis_15_1503,P300_1,2020.1.2+brain0.21.g3600fa8b8,60.889714788891446,
,,,,251,0,251,0,,,,,,,,,,,,,,,764.7569220099999,763.1228293519998,,,Karol_P300_1,001,2023_lis_15_1503,P300_1,2020.1.2+brain0.21.g3600fa8b8,60.889714788891446,
,,,,252,0,252,0,,,,,,,,,,,,,,,766.4743438390001,765.0577549209997,,,Karol_P300_1,001,2023_lis_15_1503,P300_1,2020.1.2+brain0.21.g3600fa8b8,60.889714788891446,
,,,,253,0,253,0,,,,,,,,,,,,,,,768.4082860989997,766.7739499869999,,,Karol_P300_1,001,2023_lis_15_1503,P300_1,2020.1.2+brain0.21.g3600fa8b8,60.889714788891446,
,,,,254,0,254,0,,,,,,,,,,,,,,,769.9594720579998,768.7089821539998,,,Karol_P300_1,001,2023_lis_15_1503,P300_1,2020.1.2+brain0.21.g3600fa8b8,60.889714788891446,
,,,,255,0,255,0,,,,,,,,,,,,,,,771.463095482,770.2614760440001,,,Karol_P300_1,001,2023_lis_15_1503,P300_1,2020.1.2+brain0.21.g3600fa8b8,60.889714788891446,
,,,,256,0,256,0,,,,,,,,,,,,,,,773.4957784809999,771.7758844969999,,,Karol_P300_1,001,2023_lis_15_1503,P300_1,2020.1.2+brain0.21.g3600fa8b8,60.889714788891446,
,,,,257,0,257,0,,,,,,,,,,,,,,,775.0294975419997,773.8152149909997,,,Karol_P300_1,001,2023_lis_15_1503,P300_1,2020.1.2+brain0.21.g3600fa8b8,60.889714788891446,
,,,,258,0,258,0,,,,,,,,,,,,,,,776.8938366899997,775.3275622209999,,,Karol_P300_1,001,2023_lis_15_1503,P300_1,2020.1.2+brain0.21.g3600fa8b8,60.889714788891446,
,,,,259,0,259,0,,,,,,,,,,,,,,,778.545372516,777.1939291429999,,,Karol_P300_1,001,2023_lis_15_1503,P300_1,2020.1.2+brain0.21.g3600fa8b8,60.889714788891446,
,,,,260,0,260,0,,,,,,,,,,,,,,,780.4144331859998,778.8445044629998,,,Karol_P300_1,001,2023_lis_15_1503,P300_1,2020.1.2+brain0.21.g3600fa8b8,60.889714788891446,
,,,,261,0,261,0,,,,,,,,,,,,,,,782.3459454519998,780.7305359869997,,,Karol_P300_1,001,2023_lis_15_1503,P300_1,2020.1.2+brain0.21.g3600fa8b8,60.889714788891446,
,,,,262,0,262,0,,,,,,,,,,,,,,,784.0340986279998,782.6474933169998,,,Karol_P300_1,001,2023_lis_15_1503,P300_1,2020.1.2+brain0.21.g3600fa8b8,60.889714788891446,
,,,,263,0,263,0,,,,,,,,,,,,,,,785.8977473710002,784.3503960580001,,,Karol_P300_1,001,2023_lis_15_1503,P300_1,2020.1.2+brain0.21.g3600fa8b8,60.889714788891446,
,,,,264,0,264,0,,,,,,,,,,,,,,,787.9140130860001,786.1971658919997,,,Karol_P300_1,001,2023_lis_15_1503,P300_1,2020.1.2+brain0.21.g3600fa8b8,60.889714788891446,
,,,,265,0,265,0,,,,,,,,,,,,,,,789.748305777,788.21469136,,,Karol_P300_1,001,2023_lis_15_1503,P300_1,2020.1.2+brain0.21.g3600fa8b8,60.889714788891446,
,,,,266,0,266,0,,,,,,,,,,,,,,,791.4528194290001,790.0488260299999,,,Karol_P300_1,001,2023_lis_15_1503,P300_1,2020.1.2+brain0.21.g3600fa8b8,60.889714788891446,
,,,,267,0,267,0,,,,,,,,,,,,,,,793.5162906579999,791.7498895919998,,,Karol_P300_1,001,2023_lis_15_1503,P300_1,2020.1.2+brain0.21.g3600fa8b8,60.889714788891446,
,,,,268,0,268,0,,,,,,,,,,,,,,,795.118043725,793.8160191100001,,,Karol_P300_1,001,2023_lis_15_1503,P300_1,2020.1.2+brain0.21.g3600fa8b8,60.889714788891446,
,,,,269,0,269,0,,,,,,,,,,,,,,,796.9192770260001,795.4219302369997,,,Karol_P300_1,001,2023_lis_15_1503,P300_1,2020.1.2+brain0.21.g3600fa8b8,60.889714788891446,
,,,,270,0,270,0,,,,,,,,,,,,,,,798.9188677839998,797.221916601,,,Karol_P300_1,001,2023_lis_15_1503,P300_1,2020.1.2+brain0.21.g3600fa8b8,60.889714788891446,
,,,,271,0,271,0,,,,,,,,,,,,,,,800.8186171329999,799.223113771,,,Karol_P300_1,001,2023_lis_15_1503,P300_1,2020.1.2+brain0.21.g3600fa8b8,60.889714788891446,
,,,,272,0,272,0,,,,,,,,,,,,,,,802.5192439379998,801.118712165,,,Karol_P300_1,001,2023_lis_15_1503,P300_1,2020.1.2+brain0.21.g3600fa8b8,60.889714788891446,
,,,,273,0,273,0,,,,,,,,,,,,,,,804.05377692,802.8192204269999,,,Karol_P300_1,001,2023_lis_15_1503,P300_1,2020.1.2+brain0.21.g3600fa8b8,60.889714788891446,
,,,,274,0,274,0,,,,,,,,,,,,,,,805.6586372409997,804.3553586059998,,,Karol_P300_1,001,2023_lis_15_1503,P300_1,2020.1.2+brain0.21.g3600fa8b8,60.889714788891446,
,,,,275,0,275,0,,,,,,,,,,,,,,,807.687689461,805.971253698,,,Karol_P300_1,001,2023_lis_15_1503,P300_1,2020.1.2+brain0.21.g3600fa8b8,60.889714788891446,
,,,,276,0,276,0,,,,,,,,,,,,,,,809.6231824010001,807.9895731779998,,,Karol_P300_1,001,2023_lis_15_1503,P300_1,2020.1.2+brain0.21.g3600fa8b8,60.889714788891446,
,,,,277,0,277,0,,,,,,,,,,,,,,,811.705163701,809.9401853240001,,,Karol_P300_1,001,2023_lis_15_1503,P300_1,2020.1.2+brain0.21.g3600fa8b8,60.889714788891446,
,,,,278,0,278,0,,,,,,,,,,,,,,,813.4074371649999,812.005230623,,,Karol_P300_1,001,2023_lis_15_1503,P300_1,2020.1.2+brain0.21.g3600fa8b8,60.889714788891446,
,,,,279,0,279,0,,,,,,,,,,,,,,,815.1757142299998,813.7230618680001,,,Karol_P300_1,001,2023_lis_15_1503,P300_1,2020.1.2+brain0.21.g3600fa8b8,60.889714788891446,
,,,,280,0,280,0,,,,,,,,,,,,,,,817.156981222,815.4756021160001,,,Karol_P300_1,001,2023_lis_15_1503,P300_1,2020.1.2+brain0.21.g3600fa8b8,60.889714788891446,
,,,,281,0,281,0,,,,,,,,,,,,,,,818.9081452609998,817.4569606360001,,,Karol_P300_1,001,2023_lis_15_1503,P300_1,2020.1.2+brain0.21.g3600fa8b8,60.889714788891446,
,,,,282,0,282,0,,,,,,,,,,,,,,,820.9584406650001,819.2080332969999,,,Karol_P300_1,001,2023_lis_15_1503,P300_1,2020.1.2+brain0.21.g3600fa8b8,60.889714788891446,
,,,,283,0,283,0,,,,,,,,,,,,,,,822.8095443050001,821.2592850269998,,,Karol_P300_1,001,2023_lis_15_1503,P300_1,2020.1.2+brain0.21.g3600fa8b8,60.889714788891446,
,,,,284,0,284,0,,,,,,,,,,,,,,,824.3458873300001,823.1113177980001,,,Karol_P300_1,001,2023_lis_15_1503,P300_1,2020.1.2+brain0.21.g3600fa8b8,60.889714788891446,
,,,,285,0,285,0,,,,,,,,,,,,,,,826.2264735579997,824.661346846,,,Karol_P300_1,001,2023_lis_15_1503,P300_1,2020.1.2+brain0.21.g3600fa8b8,60.889714788891446,
,,,,286,0,286,0,,,,,,,,,,,,,,,827.8279089399998,826.528756233,,,Karol_P300_1,001,2023_lis_15_1503,P300_1,2020.1.2+brain0.21.g3600fa8b8,60.889714788891446,
,,,,287,0,287,0,,,,,,,,,,,,,,,829.8657990819997,828.1276181939998,,,Karol_P300_1,001,2023_lis_15_1503,P300_1,2020.1.2+brain0.21.g3600fa8b8,60.889714788891446,
,,,,288,0,288,0,,,,,,,,,,,,,,,831.5285471769998,830.178765785,,,Karol_P300_1,001,2023_lis_15_1503,P300_1,2020.1.2+brain0.21.g3600fa8b8,60.889714788891446,
,,,,289,0,289,0,,,,,,,,,,,,,,,833.2827834679997,831.828628061,,,Karol_P300_1,001,2023_lis_15_1503,P300_1,2020.1.2+brain0.21.g3600fa8b8,60.889714788891446,
,,,,290,0,290,0,,,,,,,,,,,,,,,835.180795367,833.5994339179997,,,Karol_P300_1,001,2023_lis_15_1503,P300_1,2020.1.2+brain0.21.g3600fa8b8,60.889714788891446,
,,,,291,0,291,0,,,,,,,,,,,,,,,836.9979586029999,835.4809460329998,,,Karol_P300_1,001,2023_lis_15_1503,P300_1,2020.1.2+brain0.21.g3600fa8b8,60.889714788891446,
,,,,292,0,292,0,,,,,,,,,,,,,,,838.9142736899998,837.2968125970001,,,Karol_P300_1,001,2023_lis_15_1503,P300_1,2020.1.2+brain0.21.g3600fa8b8,60.889714788891446,
,,,,293,0,293,0,,,,,,,,,,,,,,,840.9666865260001,839.2195266660001,,,Karol_P300_1,001,2023_lis_15_1503,P300_1,2020.1.2+brain0.21.g3600fa8b8,60.889714788891446,
,,,,294,0,294,0,,,,,,,,,,,,,,,842.615374473,841.2648175059999,,,Karol_P300_1,001,2023_lis_15_1503,P300_1,2020.1.2+brain0.21.g3600fa8b8,60.889714788891446,
,,,,295,0,295,0,,,,,,,,,,,,,,,844.1659677469997,842.915262424,,,Karol_P300_1,001,2023_lis_15_1503,P300_1,2020.1.2+brain0.21.g3600fa8b8,60.889714788891446,
,,,,296,0,296,0,,,,,,,,,,,,,,,846.1008381880001,844.4658563429998,,,Karol_P300_1,001,2023_lis_15_1503,P300_1,2020.1.2+brain0.21.g3600fa8b8,60.889714788891446,
,,,,297,0,297,0,,,,,,,,,,,,,,,847.7530347649999,846.4000522249999,,,Karol_P300_1,001,2023_lis_15_1503,P300_1,2020.1.2+brain0.21.g3600fa8b8,60.889714788891446,
,,,,298,0,298,0,,,,,,,,,,,,,,,849.8371898109999,848.0510262949997,,,Karol_P300_1,001,2023_lis_15_1503,P300_1,2020.1.2+brain0.21.g3600fa8b8,60.889714788891446,
,,,,299,0,299,0,,,,,,,,,,,,,,,851.819237147,850.153851989,,,Karol_P300_1,001,2023_lis_15_1503,P300_1,2020.1.2+brain0.21.g3600fa8b8,60.889714788891446,
,,,,,,,,,,,,,,,,,,,,,,,,854.1035827229998,None,,,,,,,
