trials.thisRepN,trials.thisTrialN,trials.thisN,trials.thisIndex,text.started,text.stopped,key_resp.keys,key_resp.rt,key_resp.started,key_resp.stopped,polygon.started,polygon.stopped,text_2.started,text_2.stopped,participant,session,date,expName,psychopyVersion,frameRate,
,,,,15.456194981999943,None,space,8.069100189000096,15.456194981999943,None,,,,,Karol_VEP,001,2023_lis_15_1443,VEP,2020.1.2+brain0.21.g3600fa8b8,None,
0,0,0,0,,,,,,,24.98926948199994,None,,,Karol_VEP,001,2023_lis_15_1443,VEP,2020.1.2+brain0.21.g3600fa8b8,None,
1,0,1,0,,,,,,,26.391194501999962,25.18941469099991,,,Karol_VEP,001,2023_lis_15_1443,VEP,2020.1.2+brain0.21.g3600fa8b8,None,
2,0,2,0,,,,,,,28.17547502100001,26.596484327999974,,,Karol_VEP,001,2023_lis_15_1443,VEP,2020.1.2+brain0.21.g3600fa8b8,None,
3,0,3,0,,,,,,,29.873680853999986,28.392966842999954,,,Karol_VEP,001,2023_lis_15_1443,VEP,2020.1.2+brain0.21.g3600fa8b8,None,
4,0,4,0,,,,,,,31.829913353999927,30.07554031799998,,,Karol_VEP,001,2023_lis_15_1443,VEP,2020.1.2+brain0.21.g3600fa8b8,None,
5,0,5,0,,,,,,,33.775037924,32.044290101,,,Karol_VEP,001,2023_lis_15_1443,VEP,2020.1.2+brain0.21.g3600fa8b8,None,
6,0,6,0,,,,,,,35.52578255699996,33.97501455199995,,,Karol_VEP,001,2023_lis_15_1443,VEP,2020.1.2+brain0.21.g3600fa8b8,None,
7,0,7,0,,,,,,,37.043186576999915,35.726421232999996,,,Karol_VEP,001,2023_lis_15_1443,VEP,2020.1.2+brain0.21.g3600fa8b8,None,
8,0,8,0,,,,,,,38.62677962199996,37.24257489399997,,,Karol_VEP,001,2023_lis_15_1443,VEP,2020.1.2+brain0.21.g3600fa8b8,None,
9,0,9,0,,,,,,,40.44408754299991,38.83003020199999,,,Karol_VEP,001,2023_lis_15_1443,VEP,2020.1.2+brain0.21.g3600fa8b8,None,
10,0,10,0,,,,,,,41.945145174000004,40.647555024999974,,,Karol_VEP,001,2023_lis_15_1443,VEP,2020.1.2+brain0.21.g3600fa8b8,None,
11,0,11,0,,,,,,,43.36325704199999,42.14423827299993,,,Karol_VEP,001,2023_lis_15_1443,VEP,2020.1.2+brain0.21.g3600fa8b8,None,
12,0,12,0,,,,,,,45.26205400099991,43.580508438999914,,,Karol_VEP,001,2023_lis_15_1443,VEP,2020.1.2+brain0.21.g3600fa8b8,None,
13,0,13,0,,,,,,,46.912462592,45.46181046999993,,,Karol_VEP,001,2023_lis_15_1443,VEP,2020.1.2+brain0.21.g3600fa8b8,None,
14,0,14,0,,,,,,,48.396451906999914,47.116793214999916,,,Karol_VEP,001,2023_lis_15_1443,VEP,2020.1.2+brain0.21.g3600fa8b8,None,
15,0,15,0,,,,,,,49.99692346699999,48.597044627999935,,,Karol_VEP,001,2023_lis_15_1443,VEP,2020.1.2+brain0.21.g3600fa8b8,None,
16,0,16,0,,,,,,,51.81400574499992,50.197073936999914,,,Karol_VEP,001,2023_lis_15_1443,VEP,2020.1.2+brain0.21.g3600fa8b8,None,
17,0,17,0,,,,,,,53.632140603999915,52.01670040699992,,,Karol_VEP,001,2023_lis_15_1443,VEP,2020.1.2+brain0.21.g3600fa8b8,None,
18,0,18,0,,,,,,,55.03622263699992,53.83602173499992,,,Karol_VEP,001,2023_lis_15_1443,VEP,2020.1.2+brain0.21.g3600fa8b8,None,
19,0,19,0,,,,,,,56.76537667299999,55.24869292199992,,,Karol_VEP,001,2023_lis_15_1443,VEP,2020.1.2+brain0.21.g3600fa8b8,None,
20,0,20,0,,,,,,,58.66637972199999,56.96551328099997,,,Karol_VEP,001,2023_lis_15_1443,VEP,2020.1.2+brain0.21.g3600fa8b8,None,
21,0,21,0,,,,,,,60.51908950299992,58.86699996499999,,,Karol_VEP,001,2023_lis_15_1443,VEP,2020.1.2+brain0.21.g3600fa8b8,None,
22,0,22,0,,,,,,,62.23439185099994,60.71763434799993,,,Karol_VEP,001,2023_lis_15_1443,VEP,2020.1.2+brain0.21.g3600fa8b8,None,
23,0,23,0,,,,,,,63.802860359999954,62.43387527699997,,,Karol_VEP,001,2023_lis_15_1443,VEP,2020.1.2+brain0.21.g3600fa8b8,None,
24,0,24,0,,,,,,,65.55151595799998,64.02248821299997,,,Karol_VEP,001,2023_lis_15_1443,VEP,2020.1.2+brain0.21.g3600fa8b8,None,
25,0,25,0,,,,,,,67.235766861,65.75743975699993,,,Karol_VEP,001,2023_lis_15_1443,VEP,2020.1.2+brain0.21.g3600fa8b8,None,
26,0,26,0,,,,,,,68.75296257999992,67.43633455499992,,,Karol_VEP,001,2023_lis_15_1443,VEP,2020.1.2+brain0.21.g3600fa8b8,None,
27,0,27,0,,,,,,,70.62034684799994,68.95412328499992,,,Karol_VEP,001,2023_lis_15_1443,VEP,2020.1.2+brain0.21.g3600fa8b8,None,
28,0,28,0,,,,,,,72.38832752999997,70.82480936699994,,,Karol_VEP,001,2023_lis_15_1443,VEP,2020.1.2+brain0.21.g3600fa8b8,None,
29,0,29,0,,,,,,,74.17503845499994,72.58880910999994,,,Karol_VEP,001,2023_lis_15_1443,VEP,2020.1.2+brain0.21.g3600fa8b8,None,
30,0,30,0,,,,,,,75.80517684299991,74.39079591099994,,,Karol_VEP,001,2023_lis_15_1443,VEP,2020.1.2+brain0.21.g3600fa8b8,None,
31,0,31,0,,,,,,,77.50563359099999,76.00483817199995,,,Karol_VEP,001,2023_lis_15_1443,VEP,2020.1.2+brain0.21.g3600fa8b8,None,
32,0,32,0,,,,,,,79.2236306069999,77.70535292900001,,,Karol_VEP,001,2023_lis_15_1443,VEP,2020.1.2+brain0.21.g3600fa8b8,None,
33,0,33,0,,,,,,,80.65663483799995,79.42473602299992,,,Karol_VEP,001,2023_lis_15_1443,VEP,2020.1.2+brain0.21.g3600fa8b8,None,
34,0,34,0,,,,,,,82.09096256199996,80.85689616699995,,,Karol_VEP,001,2023_lis_15_1443,VEP,2020.1.2+brain0.21.g3600fa8b8,None,
35,0,35,0,,,,,,,83.95831893599996,82.29128728299997,,,Karol_VEP,001,2023_lis_15_1443,VEP,2020.1.2+brain0.21.g3600fa8b8,None,
36,0,36,0,,,,,,,85.593310696,84.15776185300001,,,Karol_VEP,001,2023_lis_15_1443,VEP,2020.1.2+brain0.21.g3600fa8b8,None,
37,0,37,0,,,,,,,87.17968710599996,85.8116460409999,,,Karol_VEP,001,2023_lis_15_1443,VEP,2020.1.2+brain0.21.g3600fa8b8,None,
38,0,38,0,,,,,,,88.92610800699993,87.39182288399991,,,Karol_VEP,001,2023_lis_15_1443,VEP,2020.1.2+brain0.21.g3600fa8b8,None,
39,0,39,0,,,,,,,90.44288080699994,89.12656291899998,,,Karol_VEP,001,2023_lis_15_1443,VEP,2020.1.2+brain0.21.g3600fa8b8,None,
40,0,40,0,,,,,,,91.87659579199999,90.64275664799993,,,Karol_VEP,001,2023_lis_15_1443,VEP,2020.1.2+brain0.21.g3600fa8b8,None,
41,0,41,0,,,,,,,93.66216048000001,92.07707076700001,,,Karol_VEP,001,2023_lis_15_1443,VEP,2020.1.2+brain0.21.g3600fa8b8,None,
42,0,42,0,,,,,,,95.479267349,93.87925873899997,,,Karol_VEP,001,2023_lis_15_1443,VEP,2020.1.2+brain0.21.g3600fa8b8,None,
43,0,43,0,,,,,,,97.261790582,95.69445061499994,,,Karol_VEP,001,2023_lis_15_1443,VEP,2020.1.2+brain0.21.g3600fa8b8,None,
44,0,44,0,,,,,,,98.72955398599993,97.461666014,,,Karol_VEP,001,2023_lis_15_1443,VEP,2020.1.2+brain0.21.g3600fa8b8,None,
45,0,45,0,,,,,,,100.346281266,98.93107941400001,,,Karol_VEP,001,2023_lis_15_1443,VEP,2020.1.2+brain0.21.g3600fa8b8,None,
46,0,46,0,,,,,,,102.298426586,100.54678568499992,,,Karol_VEP,001,2023_lis_15_1443,VEP,2020.1.2+brain0.21.g3600fa8b8,None,
47,0,47,0,,,,,,,104.01473641999996,102.51331695099998,,,Karol_VEP,001,2023_lis_15_1443,VEP,2020.1.2+brain0.21.g3600fa8b8,None,
48,0,48,0,,,,,,,105.99870339099994,104.21400363199996,,,Karol_VEP,001,2023_lis_15_1443,VEP,2020.1.2+brain0.21.g3600fa8b8,None,
49,0,49,0,,,,,,,107.90155491799999,106.203502448,,,Karol_VEP,001,2023_lis_15_1443,VEP,2020.1.2+brain0.21.g3600fa8b8,None,
50,0,50,0,,,,,,,109.399875823,108.11808062399996,,,Karol_VEP,001,2023_lis_15_1443,VEP,2020.1.2+brain0.21.g3600fa8b8,None,
51,0,51,0,,,,,,,110.8828358369999,109.59987529799992,,,Karol_VEP,001,2023_lis_15_1443,VEP,2020.1.2+brain0.21.g3600fa8b8,None,
52,0,52,0,,,,,,,112.63540046699995,111.08279678899999,,,Karol_VEP,001,2023_lis_15_1443,VEP,2020.1.2+brain0.21.g3600fa8b8,None,
53,0,53,0,,,,,,,114.58405178399994,112.83345152799996,,,Karol_VEP,001,2023_lis_15_1443,VEP,2020.1.2+brain0.21.g3600fa8b8,None,
54,0,54,0,,,,,,,116.32269257799999,114.78480922999995,,,Karol_VEP,001,2023_lis_15_1443,VEP,2020.1.2+brain0.21.g3600fa8b8,None,
55,0,55,0,,,,,,,118.17192034899995,116.53465428300001,,,Karol_VEP,001,2023_lis_15_1443,VEP,2020.1.2+brain0.21.g3600fa8b8,None,
56,0,56,0,,,,,,,119.73596264699995,118.38800542599995,,,Karol_VEP,001,2023_lis_15_1443,VEP,2020.1.2+brain0.21.g3600fa8b8,None,
57,0,57,0,,,,,,,121.58727132799993,119.93606823300001,,,Karol_VEP,001,2023_lis_15_1443,VEP,2020.1.2+brain0.21.g3600fa8b8,None,
58,0,58,0,,,,,,,123.53757315799999,121.786925645,,,Karol_VEP,001,2023_lis_15_1443,VEP,2020.1.2+brain0.21.g3600fa8b8,None,
59,0,59,0,,,,,,,124.95445787199992,123.740583303,,,Karol_VEP,001,2023_lis_15_1443,VEP,2020.1.2+brain0.21.g3600fa8b8,None,
60,0,60,0,,,,,,,126.42127807999998,125.15408295299994,,,Karol_VEP,001,2023_lis_15_1443,VEP,2020.1.2+brain0.21.g3600fa8b8,None,
61,0,61,0,,,,,,,128.13885547899997,126.62322518899998,,,Karol_VEP,001,2023_lis_15_1443,VEP,2020.1.2+brain0.21.g3600fa8b8,None,
62,0,62,0,,,,,,,129.956093206,128.3435529699999,,,Karol_VEP,001,2023_lis_15_1443,VEP,2020.1.2+brain0.21.g3600fa8b8,None,
63,0,63,0,,,,,,,131.35803239899997,130.15605365299996,,,Karol_VEP,001,2023_lis_15_1443,VEP,2020.1.2+brain0.21.g3600fa8b8,None,
64,0,64,0,,,,,,,133.15709256399998,131.556800586,,,Karol_VEP,001,2023_lis_15_1443,VEP,2020.1.2+brain0.21.g3600fa8b8,None,
65,0,65,0,,,,,,,134.809536375,133.357966574,,,Karol_VEP,001,2023_lis_15_1443,VEP,2020.1.2+brain0.21.g3600fa8b8,None,
66,0,66,0,,,,,,,136.24115005299996,135.02399182699992,,,Karol_VEP,001,2023_lis_15_1443,VEP,2020.1.2+brain0.21.g3600fa8b8,None,
67,0,67,0,,,,,,,138.17533880899998,136.45154140499994,,,Karol_VEP,001,2023_lis_15_1443,VEP,2020.1.2+brain0.21.g3600fa8b8,None,
68,0,68,0,,,,,,,139.79678827499993,138.376841485,,,Karol_VEP,001,2023_lis_15_1443,VEP,2020.1.2+brain0.21.g3600fa8b8,None,
69,0,69,0,,,,,,,141.34293078299993,139.99232194399997,,,Karol_VEP,001,2023_lis_15_1443,VEP,2020.1.2+brain0.21.g3600fa8b8,None,
70,0,70,0,,,,,,,142.74321223099992,141.543790402,,,Karol_VEP,001,2023_lis_15_1443,VEP,2020.1.2+brain0.21.g3600fa8b8,None,
71,0,71,0,,,,,,,144.37795222199998,142.94731207899997,,,Karol_VEP,001,2023_lis_15_1443,VEP,2020.1.2+brain0.21.g3600fa8b8,None,
72,0,72,0,,,,,,,146.094704858,144.58213632699994,,,Karol_VEP,001,2023_lis_15_1443,VEP,2020.1.2+brain0.21.g3600fa8b8,None,
73,0,73,0,,,,,,,147.51611091999996,146.2966674989999,,,Karol_VEP,001,2023_lis_15_1443,VEP,2020.1.2+brain0.21.g3600fa8b8,None,
74,0,74,0,,,,,,,149.29767023399995,147.73208004999992,,,Karol_VEP,001,2023_lis_15_1443,VEP,2020.1.2+brain0.21.g3600fa8b8,None,
75,0,75,0,,,,,,,150.71268111899997,149.51606677099994,,,Karol_VEP,001,2023_lis_15_1443,VEP,2020.1.2+brain0.21.g3600fa8b8,None,
76,0,76,0,,,,,,,152.396774811,150.91582058999995,,,Karol_VEP,001,2023_lis_15_1443,VEP,2020.1.2+brain0.21.g3600fa8b8,None,
77,0,77,0,,,,,,,153.98037646399996,152.602126569,,,Karol_VEP,001,2023_lis_15_1443,VEP,2020.1.2+brain0.21.g3600fa8b8,None,
78,0,78,0,,,,,,,155.91427779699995,154.184579053,,,Karol_VEP,001,2023_lis_15_1443,VEP,2020.1.2+brain0.21.g3600fa8b8,None,
79,0,79,0,,,,,,,157.50040013399996,156.1151907709999,,,Karol_VEP,001,2023_lis_15_1443,VEP,2020.1.2+brain0.21.g3600fa8b8,None,
80,0,80,0,,,,,,,159.39978097999995,157.7191698549999,,,Karol_VEP,001,2023_lis_15_1443,VEP,2020.1.2+brain0.21.g3600fa8b8,None,
81,0,81,0,,,,,,,161.25506433599992,159.59989709899992,,,Karol_VEP,001,2023_lis_15_1443,VEP,2020.1.2+brain0.21.g3600fa8b8,None,
82,0,82,0,,,,,,,162.95242984499998,161.4664583199999,,,Karol_VEP,001,2023_lis_15_1443,VEP,2020.1.2+brain0.21.g3600fa8b8,None,
83,0,83,0,,,,,,,164.95664482099994,163.16792489,,,Karol_VEP,001,2023_lis_15_1443,VEP,2020.1.2+brain0.21.g3600fa8b8,None,
84,0,84,0,,,,,,,166.401116312,165.171577565,,,Karol_VEP,001,2023_lis_15_1443,VEP,2020.1.2+brain0.21.g3600fa8b8,None,
85,0,85,0,,,,,,,168.27272138599994,166.60471330999997,,,Karol_VEP,001,2023_lis_15_1443,VEP,2020.1.2+brain0.21.g3600fa8b8,None,
86,0,86,0,,,,,,,169.9709775629999,168.48508948899996,,,Karol_VEP,001,2023_lis_15_1443,VEP,2020.1.2+brain0.21.g3600fa8b8,None,
87,0,87,0,,,,,,,171.754714486,170.18612111999994,,,Karol_VEP,001,2023_lis_15_1443,VEP,2020.1.2+brain0.21.g3600fa8b8,None,
88,0,88,0,,,,,,,173.45344876399997,171.97205737699994,,,Karol_VEP,001,2023_lis_15_1443,VEP,2020.1.2+brain0.21.g3600fa8b8,None,
89,0,89,0,,,,,,,175.091150341,173.654428188,,,Karol_VEP,001,2023_lis_15_1443,VEP,2020.1.2+brain0.21.g3600fa8b8,None,
90,0,90,0,,,,,,,177.00660134499992,175.30478799499997,,,Karol_VEP,001,2023_lis_15_1443,VEP,2020.1.2+brain0.21.g3600fa8b8,None,
91,0,91,0,,,,,,,178.94268179999995,177.20500547999995,,,Karol_VEP,001,2023_lis_15_1443,VEP,2020.1.2+brain0.21.g3600fa8b8,None,
92,0,92,0,,,,,,,180.47258707899994,179.155684349,,,Karol_VEP,001,2023_lis_15_1443,VEP,2020.1.2+brain0.21.g3600fa8b8,None,
93,0,93,0,,,,,,,182.00805284699993,180.67244388199992,,,Karol_VEP,001,2023_lis_15_1443,VEP,2020.1.2+brain0.21.g3600fa8b8,None,
94,0,94,0,,,,,,,183.77365202,182.210367389,,,Karol_VEP,001,2023_lis_15_1443,VEP,2020.1.2+brain0.21.g3600fa8b8,None,
95,0,95,0,,,,,,,185.57452305899994,183.97683279399996,,,Karol_VEP,001,2023_lis_15_1443,VEP,2020.1.2+brain0.21.g3600fa8b8,None,
96,0,96,0,,,,,,,187.52520325699993,185.7742337599999,,,Karol_VEP,001,2023_lis_15_1443,VEP,2020.1.2+brain0.21.g3600fa8b8,None,
97,0,97,0,,,,,,,189.276013746,187.72544112399999,,,Karol_VEP,001,2023_lis_15_1443,VEP,2020.1.2+brain0.21.g3600fa8b8,None,
98,0,98,0,,,,,,,190.77875429899996,189.47601724899994,,,Karol_VEP,001,2023_lis_15_1443,VEP,2020.1.2+brain0.21.g3600fa8b8,None,
99,0,99,0,,,,,,,192.22802121999996,190.97634444999994,,,Karol_VEP,001,2023_lis_15_1443,VEP,2020.1.2+brain0.21.g3600fa8b8,None,
100,0,100,0,,,,,,,193.78066084699992,192.42780225299998,,,Karol_VEP,001,2023_lis_15_1443,VEP,2020.1.2+brain0.21.g3600fa8b8,None,
101,0,101,0,,,,,,,195.48109395099993,193.97878119999996,,,Karol_VEP,001,2023_lis_15_1443,VEP,2020.1.2+brain0.21.g3600fa8b8,None,
102,0,102,0,,,,,,,197.39510735599993,195.69420115399998,,,Karol_VEP,001,2023_lis_15_1443,VEP,2020.1.2+brain0.21.g3600fa8b8,None,
103,0,103,0,,,,,,,199.12913000999993,197.60049272499998,,,Karol_VEP,001,2023_lis_15_1443,VEP,2020.1.2+brain0.21.g3600fa8b8,None,
104,0,104,0,,,,,,,201.11274054499995,199.33336214299993,,,Karol_VEP,001,2023_lis_15_1443,VEP,2020.1.2+brain0.21.g3600fa8b8,None,
105,0,105,0,,,,,,,202.81337752799993,201.31359985299991,,,Karol_VEP,001,2023_lis_15_1443,VEP,2020.1.2+brain0.21.g3600fa8b8,None,
106,0,106,0,,,,,,,204.234262942,203.01329733199998,,,Karol_VEP,001,2023_lis_15_1443,VEP,2020.1.2+brain0.21.g3600fa8b8,None,
107,0,107,0,,,,,,,206.01444059899995,204.45014869399995,,,Karol_VEP,001,2023_lis_15_1443,VEP,2020.1.2+brain0.21.g3600fa8b8,None,
108,0,108,0,,,,,,,207.50182132199996,206.214534705,,,Karol_VEP,001,2023_lis_15_1443,VEP,2020.1.2+brain0.21.g3600fa8b8,None,
109,0,109,0,,,,,,,209.43278072499993,207.7024132429999,,,Karol_VEP,001,2023_lis_15_1443,VEP,2020.1.2+brain0.21.g3600fa8b8,None,
110,0,110,0,,,,,,,211.416502735,209.63323957699993,,,Karol_VEP,001,2023_lis_15_1443,VEP,2020.1.2+brain0.21.g3600fa8b8,None,
111,0,111,0,,,,,,,213.26849803899995,211.616541192,,,Karol_VEP,001,2023_lis_15_1443,VEP,2020.1.2+brain0.21.g3600fa8b8,None,
112,0,112,0,,,,,,,214.7881270009999,213.46725502599998,,,Karol_VEP,001,2023_lis_15_1443,VEP,2020.1.2+brain0.21.g3600fa8b8,None,
113,0,113,0,,,,,,,216.40596012999993,215.00200642599998,,,Karol_VEP,001,2023_lis_15_1443,VEP,2020.1.2+brain0.21.g3600fa8b8,None,
114,0,114,0,,,,,,,218.02295622099996,216.62160548499992,,,Karol_VEP,001,2023_lis_15_1443,VEP,2020.1.2+brain0.21.g3600fa8b8,None,
115,0,115,0,,,,,,,219.61978134699996,218.21928677699998,,,Karol_VEP,001,2023_lis_15_1443,VEP,2020.1.2+brain0.21.g3600fa8b8,None,
116,0,116,0,,,,,,,221.07049788999996,219.82312958199998,,,Karol_VEP,001,2023_lis_15_1443,VEP,2020.1.2+brain0.21.g3600fa8b8,None,
117,0,117,0,,,,,,,222.92292543099995,221.27300020799998,,,Karol_VEP,001,2023_lis_15_1443,VEP,2020.1.2+brain0.21.g3600fa8b8,None,
118,0,118,0,,,,,,,224.38770045599995,223.1430843359999,,,Karol_VEP,001,2023_lis_15_1443,VEP,2020.1.2+brain0.21.g3600fa8b8,None,
119,0,119,0,,,,,,,226.32686509999996,224.58916809799996,,,Karol_VEP,001,2023_lis_15_1443,VEP,2020.1.2+brain0.21.g3600fa8b8,None,
120,0,120,0,,,,,,,228.07204727299995,226.53957332699997,,,Karol_VEP,001,2023_lis_15_1443,VEP,2020.1.2+brain0.21.g3600fa8b8,None,
121,0,121,0,,,,,,,229.62251728899992,228.27730849099999,,,Karol_VEP,001,2023_lis_15_1443,VEP,2020.1.2+brain0.21.g3600fa8b8,None,
122,0,122,0,,,,,,,231.49007943699996,229.82494927999994,,,Karol_VEP,001,2023_lis_15_1443,VEP,2020.1.2+brain0.21.g3600fa8b8,None,
123,0,123,0,,,,,,,233.173570649,231.69404867799994,,,Karol_VEP,001,2023_lis_15_1443,VEP,2020.1.2+brain0.21.g3600fa8b8,None,
124,0,124,0,,,,,,,235.024834919,233.37934823599994,,,Karol_VEP,001,2023_lis_15_1443,VEP,2020.1.2+brain0.21.g3600fa8b8,None,
125,0,125,0,,,,,,,236.86014045299999,235.22436871899993,,,Karol_VEP,001,2023_lis_15_1443,VEP,2020.1.2+brain0.21.g3600fa8b8,None,
126,0,126,0,,,,,,,238.76359801399997,237.059715837,,,Karol_VEP,001,2023_lis_15_1443,VEP,2020.1.2+brain0.21.g3600fa8b8,None,
127,0,127,0,,,,,,,240.2263752949999,238.97553257899995,,,Karol_VEP,001,2023_lis_15_1443,VEP,2020.1.2+brain0.21.g3600fa8b8,None,
128,0,128,0,,,,,,,242.14350722999995,240.42732471499994,,,Karol_VEP,001,2023_lis_15_1443,VEP,2020.1.2+brain0.21.g3600fa8b8,None,
129,0,129,0,,,,,,,243.64432969999996,242.34839795699997,,,Karol_VEP,001,2023_lis_15_1443,VEP,2020.1.2+brain0.21.g3600fa8b8,None,
130,0,130,0,,,,,,,245.61564565699996,243.84592368899996,,,Karol_VEP,001,2023_lis_15_1443,VEP,2020.1.2+brain0.21.g3600fa8b8,None,
131,0,131,0,,,,,,,247.366114132,245.8288263359999,,,Karol_VEP,001,2023_lis_15_1443,VEP,2020.1.2+brain0.21.g3600fa8b8,None,
132,0,132,0,,,,,,,248.88067677799995,247.580647667,,,Karol_VEP,001,2023_lis_15_1443,VEP,2020.1.2+brain0.21.g3600fa8b8,None,
133,0,133,0,,,,,,,250.38442575199997,249.09602389299994,,,Karol_VEP,001,2023_lis_15_1443,VEP,2020.1.2+brain0.21.g3600fa8b8,None,
134,0,134,0,,,,,,,252.03059122499997,250.596566853,,,Karol_VEP,001,2023_lis_15_1443,VEP,2020.1.2+brain0.21.g3600fa8b8,None,
135,0,135,0,,,,,,,253.53250146099992,252.23449709299996,,,Karol_VEP,001,2023_lis_15_1443,VEP,2020.1.2+brain0.21.g3600fa8b8,None,
136,0,136,0,,,,,,,255.26455004799993,253.73624569899994,,,Karol_VEP,001,2023_lis_15_1443,VEP,2020.1.2+brain0.21.g3600fa8b8,None,
137,0,137,0,,,,,,,256.78387921499996,255.4645733719999,,,Karol_VEP,001,2023_lis_15_1443,VEP,2020.1.2+brain0.21.g3600fa8b8,None,
138,0,138,0,,,,,,,258.40340641599994,257.00278141699994,,,Karol_VEP,001,2023_lis_15_1443,VEP,2020.1.2+brain0.21.g3600fa8b8,None,
139,0,139,0,,,,,,,259.88289341899997,258.61570760899997,,,Karol_VEP,001,2023_lis_15_1443,VEP,2020.1.2+brain0.21.g3600fa8b8,None,
140,0,140,0,,,,,,,261.35282502099994,260.0861191199999,,,Karol_VEP,001,2023_lis_15_1443,VEP,2020.1.2+brain0.21.g3600fa8b8,None,
141,0,141,0,,,,,,,263.15276342899995,261.56660908899994,,,Karol_VEP,001,2023_lis_15_1443,VEP,2020.1.2+brain0.21.g3600fa8b8,None,
142,0,142,0,,,,,,,264.918692513,263.35471335,,,Karol_VEP,001,2023_lis_15_1443,VEP,2020.1.2+brain0.21.g3600fa8b8,None,
143,0,143,0,,,,,,,266.41922826999996,265.118134144,,,Karol_VEP,001,2023_lis_15_1443,VEP,2020.1.2+brain0.21.g3600fa8b8,None,
144,0,144,0,,,,,,,268.3209446699999,266.621782682,,,Karol_VEP,001,2023_lis_15_1443,VEP,2020.1.2+brain0.21.g3600fa8b8,None,
145,0,145,0,,,,,,,270.1880457389999,268.524602363,,,Karol_VEP,001,2023_lis_15_1443,VEP,2020.1.2+brain0.21.g3600fa8b8,None,
146,0,146,0,,,,,,,271.77346558,270.4075992559999,,,Karol_VEP,001,2023_lis_15_1443,VEP,2020.1.2+brain0.21.g3600fa8b8,None,
147,0,147,0,,,,,,,273.32379198399997,271.9869010719999,,,Karol_VEP,001,2023_lis_15_1443,VEP,2020.1.2+brain0.21.g3600fa8b8,None,
148,0,148,0,,,,,,,275.19075103399996,273.5373564109999,,,Karol_VEP,001,2023_lis_15_1443,VEP,2020.1.2+brain0.21.g3600fa8b8,None,
149,0,149,0,,,,,,,276.91107597099995,275.404726226,,,Karol_VEP,001,2023_lis_15_1443,VEP,2020.1.2+brain0.21.g3600fa8b8,None,
150,0,150,0,,,,,,,278.64124274999995,277.1261446049999,,,Karol_VEP,001,2023_lis_15_1443,VEP,2020.1.2+brain0.21.g3600fa8b8,None,
151,0,151,0,,,,,,,280.391653939,278.8396116639999,,,Karol_VEP,001,2023_lis_15_1443,VEP,2020.1.2+brain0.21.g3600fa8b8,None,
152,0,152,0,,,,,,,281.9742419019999,280.6077803359999,,,Karol_VEP,001,2023_lis_15_1443,VEP,2020.1.2+brain0.21.g3600fa8b8,None,
153,0,153,0,,,,,,,283.7422957499999,282.173706221,,,Karol_VEP,001,2023_lis_15_1443,VEP,2020.1.2+brain0.21.g3600fa8b8,None,
154,0,154,0,,,,,,,285.378244042,283.957616725,,,Karol_VEP,001,2023_lis_15_1443,VEP,2020.1.2+brain0.21.g3600fa8b8,None,
155,0,155,0,,,,,,,287.27672775099995,285.591941735,,,Karol_VEP,001,2023_lis_15_1443,VEP,2020.1.2+brain0.21.g3600fa8b8,None,
156,0,156,0,,,,,,,289.0605667719999,287.4774918439999,,,Karol_VEP,001,2023_lis_15_1443,VEP,2020.1.2+brain0.21.g3600fa8b8,None,
157,0,157,0,,,,,,,290.4608134399999,289.260527111,,,Karol_VEP,001,2023_lis_15_1443,VEP,2020.1.2+brain0.21.g3600fa8b8,None,
158,0,158,0,,,,,,,292.32752443699997,290.664197823,,,Karol_VEP,001,2023_lis_15_1443,VEP,2020.1.2+brain0.21.g3600fa8b8,None,
159,0,159,0,,,,,,,294.231646308,292.52946144299995,,,Karol_VEP,001,2023_lis_15_1443,VEP,2020.1.2+brain0.21.g3600fa8b8,None,
160,0,160,0,,,,,,,296.078841507,294.44962353799997,,,Karol_VEP,001,2023_lis_15_1443,VEP,2020.1.2+brain0.21.g3600fa8b8,None,
161,0,161,0,,,,,,,298.01545575399996,296.28096220399993,,,Karol_VEP,001,2023_lis_15_1443,VEP,2020.1.2+brain0.21.g3600fa8b8,None,
162,0,162,0,,,,,,,299.47995639,298.23102839599994,,,Karol_VEP,001,2023_lis_15_1443,VEP,2020.1.2+brain0.21.g3600fa8b8,None,
163,0,163,0,,,,,,,300.9332984079999,299.6805448409999,,,Karol_VEP,001,2023_lis_15_1443,VEP,2020.1.2+brain0.21.g3600fa8b8,None,
164,0,164,0,,,,,,,302.54737793999993,301.13249348599993,,,Karol_VEP,001,2023_lis_15_1443,VEP,2020.1.2+brain0.21.g3600fa8b8,None,
165,0,165,0,,,,,,,304.19888557699994,302.75144513299995,,,Karol_VEP,001,2023_lis_15_1443,VEP,2020.1.2+brain0.21.g3600fa8b8,None,
166,0,166,0,,,,,,,305.68239690099995,304.3979712109999,,,Karol_VEP,001,2023_lis_15_1443,VEP,2020.1.2+brain0.21.g3600fa8b8,None,
167,0,167,0,,,,,,,307.29948299399996,305.88316563499995,,,Karol_VEP,001,2023_lis_15_1443,VEP,2020.1.2+brain0.21.g3600fa8b8,None,
168,0,168,0,,,,,,,308.91637178299993,307.502419165,,,Karol_VEP,001,2023_lis_15_1443,VEP,2020.1.2+brain0.21.g3600fa8b8,None,
169,0,169,0,,,,,,,310.80052996899997,309.11631331,,,Karol_VEP,001,2023_lis_15_1443,VEP,2020.1.2+brain0.21.g3600fa8b8,None,
170,0,170,0,,,,,,,312.4856863499999,311.001366727,,,Karol_VEP,001,2023_lis_15_1443,VEP,2020.1.2+brain0.21.g3600fa8b8,None,
171,0,171,0,,,,,,,313.936382021,312.702610252,,,Karol_VEP,001,2023_lis_15_1443,VEP,2020.1.2+brain0.21.g3600fa8b8,None,
172,0,172,0,,,,,,,315.702611425,314.1520205459999,,,Karol_VEP,001,2023_lis_15_1443,VEP,2020.1.2+brain0.21.g3600fa8b8,None,
173,0,173,0,,,,,,,317.4200418979999,315.90658410699996,,,Karol_VEP,001,2023_lis_15_1443,VEP,2020.1.2+brain0.21.g3600fa8b8,None,
174,0,174,0,,,,,,,318.9366399329999,317.61925412899996,,,Karol_VEP,001,2023_lis_15_1443,VEP,2020.1.2+brain0.21.g3600fa8b8,None,
175,0,175,0,,,,,,,320.6041887099999,319.1363135739999,,,Karol_VEP,001,2023_lis_15_1443,VEP,2020.1.2+brain0.21.g3600fa8b8,None,
176,0,176,0,,,,,,,322.20752271799995,320.8075604879999,,,Karol_VEP,001,2023_lis_15_1443,VEP,2020.1.2+brain0.21.g3600fa8b8,None,
177,0,177,0,,,,,,,323.8895651309999,322.425569676,,,Karol_VEP,001,2023_lis_15_1443,VEP,2020.1.2+brain0.21.g3600fa8b8,None,
178,0,178,0,,,,,,,325.540069484,324.089415768,,,Karol_VEP,001,2023_lis_15_1443,VEP,2020.1.2+brain0.21.g3600fa8b8,None,
179,0,179,0,,,,,,,327.52418291999993,325.74019630299995,,,Karol_VEP,001,2023_lis_15_1443,VEP,2020.1.2+brain0.21.g3600fa8b8,None,
180,0,180,0,,,,,,,328.975037573,327.72428911399993,,,Karol_VEP,001,2023_lis_15_1443,VEP,2020.1.2+brain0.21.g3600fa8b8,None,
181,0,181,0,,,,,,,330.85857031499995,329.177159491,,,Karol_VEP,001,2023_lis_15_1443,VEP,2020.1.2+brain0.21.g3600fa8b8,None,
182,0,182,0,,,,,,,332.4789177,331.05868234799993,,,Karol_VEP,001,2023_lis_15_1443,VEP,2020.1.2+brain0.21.g3600fa8b8,None,
183,0,183,0,,,,,,,337.368771112,332.69387751,,,Karol_VEP,001,2023_lis_15_1443,VEP,2020.1.2+brain0.21.g3600fa8b8,None,
184,0,184,0,,,,,,,340.41188504699994,339.3683300749999,,,Karol_VEP,001,2023_lis_15_1443,VEP,2020.1.2+brain0.21.g3600fa8b8,None,
185,0,185,0,,,,,,,342.17799925299994,340.610624616,,,Karol_VEP,001,2023_lis_15_1443,VEP,2020.1.2+brain0.21.g3600fa8b8,None,
186,0,186,0,,,,,,,343.69665530099996,342.380220895,,,Karol_VEP,001,2023_lis_15_1443,VEP,2020.1.2+brain0.21.g3600fa8b8,None,
187,0,187,0,,,,,,,345.4508093669999,343.91703829799997,,,Karol_VEP,001,2023_lis_15_1443,VEP,2020.1.2+brain0.21.g3600fa8b8,None,
188,0,188,0,,,,,,,347.112772277,345.66538349199993,,,Karol_VEP,001,2023_lis_15_1443,VEP,2020.1.2+brain0.21.g3600fa8b8,None,
189,0,189,0,,,,,,,348.847197724,347.3139472849999,,,Karol_VEP,001,2023_lis_15_1443,VEP,2020.1.2+brain0.21.g3600fa8b8,None,
190,0,190,0,,,,,,,350.66512969999997,349.05164257,,,Karol_VEP,001,2023_lis_15_1443,VEP,2020.1.2+brain0.21.g3600fa8b8,None,
191,0,191,0,,,,,,,352.48061644999996,350.8639488199999,,,Karol_VEP,001,2023_lis_15_1443,VEP,2020.1.2+brain0.21.g3600fa8b8,None,
192,0,192,0,,,,,,,354.250068133,352.6805035599999,,,Karol_VEP,001,2023_lis_15_1443,VEP,2020.1.2+brain0.21.g3600fa8b8,None,
193,0,193,0,,,,,,,355.683247219,354.46689025499995,,,Karol_VEP,001,2023_lis_15_1443,VEP,2020.1.2+brain0.21.g3600fa8b8,None,
194,0,194,0,,,,,,,357.4487285189999,355.8817836999999,,,Karol_VEP,001,2023_lis_15_1443,VEP,2020.1.2+brain0.21.g3600fa8b8,None,
195,0,195,0,,,,,,,359.08528317899993,357.64944411499994,,,Karol_VEP,001,2023_lis_15_1443,VEP,2020.1.2+brain0.21.g3600fa8b8,None,
196,0,196,0,,,,,,,360.8334041249999,359.30109974999993,,,Karol_VEP,001,2023_lis_15_1443,VEP,2020.1.2+brain0.21.g3600fa8b8,None,
197,0,197,0,,,,,,,362.400653167,361.03652250799996,,,Karol_VEP,001,2023_lis_15_1443,VEP,2020.1.2+brain0.21.g3600fa8b8,None,
198,0,198,0,,,,,,,364.2674910689999,362.60270497299996,,,Karol_VEP,001,2023_lis_15_1443,VEP,2020.1.2+brain0.21.g3600fa8b8,None,
199,0,199,0,,,,,,,366.23489744999995,364.471468933,,,Karol_VEP,001,2023_lis_15_1443,VEP,2020.1.2+brain0.21.g3600fa8b8,None,
200,0,200,0,,,,,,,368.1051283669999,366.4377571189999,,,Karol_VEP,001,2023_lis_15_1443,VEP,2020.1.2+brain0.21.g3600fa8b8,None,
201,0,201,0,,,,,,,369.98631546499996,368.3048327949999,,,Karol_VEP,001,2023_lis_15_1443,VEP,2020.1.2+brain0.21.g3600fa8b8,None,
202,0,202,0,,,,,,,371.55879265299995,370.189669376,,,Karol_VEP,001,2023_lis_15_1443,VEP,2020.1.2+brain0.21.g3600fa8b8,None,
203,0,203,0,,,,,,,373.171564226,371.76999013499994,,,Karol_VEP,001,2023_lis_15_1443,VEP,2020.1.2+brain0.21.g3600fa8b8,None,
204,0,204,0,,,,,,,374.58765862099995,373.37542257999996,,,Karol_VEP,001,2023_lis_15_1443,VEP,2020.1.2+brain0.21.g3600fa8b8,None,
205,0,205,0,,,,,,,376.5237510579999,374.78766976099996,,,Karol_VEP,001,2023_lis_15_1443,VEP,2020.1.2+brain0.21.g3600fa8b8,None,
206,0,206,0,,,,,,,378.03986256299993,376.72655728099994,,,Karol_VEP,001,2023_lis_15_1443,VEP,2020.1.2+brain0.21.g3600fa8b8,None,
207,0,207,0,,,,,,,379.62314289899996,378.23892666899997,,,Karol_VEP,001,2023_lis_15_1443,VEP,2020.1.2+brain0.21.g3600fa8b8,None,
208,0,208,0,,,,,,,381.208612282,379.823606877,,,Karol_VEP,001,2023_lis_15_1443,VEP,2020.1.2+brain0.21.g3600fa8b8,None,
209,0,209,0,,,,,,,382.811741524,381.426083392,,,Karol_VEP,001,2023_lis_15_1443,VEP,2020.1.2+brain0.21.g3600fa8b8,None,
210,0,210,0,,,,,,,384.6585771189999,383.02616747799993,,,Karol_VEP,001,2023_lis_15_1443,VEP,2020.1.2+brain0.21.g3600fa8b8,None,
211,0,211,0,,,,,,,386.34263722699995,384.8578806659999,,,Karol_VEP,001,2023_lis_15_1443,VEP,2020.1.2+brain0.21.g3600fa8b8,None,
212,0,212,0,,,,,,,387.75894937299995,386.5428695009999,,,Karol_VEP,001,2023_lis_15_1443,VEP,2020.1.2+brain0.21.g3600fa8b8,None,
213,0,213,0,,,,,,,389.24327156899994,387.95891890199994,,,Karol_VEP,001,2023_lis_15_1443,VEP,2020.1.2+brain0.21.g3600fa8b8,None,
214,0,214,0,,,,,,,391.110435244,389.44365240599996,,,Karol_VEP,001,2023_lis_15_1443,VEP,2020.1.2+brain0.21.g3600fa8b8,None,
215,0,215,0,,,,,,,392.9110051419999,391.3121588749999,,,Karol_VEP,001,2023_lis_15_1443,VEP,2020.1.2+brain0.21.g3600fa8b8,None,
216,0,216,0,,,,,,,394.41157533,393.11102909199997,,,Karol_VEP,001,2023_lis_15_1443,VEP,2020.1.2+brain0.21.g3600fa8b8,None,
217,0,217,0,,,,,,,395.949690736,394.61157559699996,,,Karol_VEP,001,2023_lis_15_1443,VEP,2020.1.2+brain0.21.g3600fa8b8,None,
218,0,218,0,,,,,,,397.466491283,396.1622798899999,,,Karol_VEP,001,2023_lis_15_1443,VEP,2020.1.2+brain0.21.g3600fa8b8,None,
219,0,219,0,,,,,,,399.367419736,397.678915082,,,Karol_VEP,001,2023_lis_15_1443,VEP,2020.1.2+brain0.21.g3600fa8b8,None,
220,0,220,0,,,,,,,401.230556258,399.564306858,,,Karol_VEP,001,2023_lis_15_1443,VEP,2020.1.2+brain0.21.g3600fa8b8,None,
221,0,221,0,,,,,,,402.685470452,401.43476932,,,Karol_VEP,001,2023_lis_15_1443,VEP,2020.1.2+brain0.21.g3600fa8b8,None,
222,0,222,0,,,,,,,404.148058064,402.880755905,,,Karol_VEP,001,2023_lis_15_1443,VEP,2020.1.2+brain0.21.g3600fa8b8,None,
223,0,223,0,,,,,,,405.94866373599996,404.348016228,,,Karol_VEP,001,2023_lis_15_1443,VEP,2020.1.2+brain0.21.g3600fa8b8,None,
224,0,224,0,,,,,,,407.6864075169999,406.15436207999994,,,Karol_VEP,001,2023_lis_15_1443,VEP,2020.1.2+brain0.21.g3600fa8b8,None,
225,0,225,0,,,,,,,409.5501489799999,407.899206855,,,Karol_VEP,001,2023_lis_15_1443,VEP,2020.1.2+brain0.21.g3600fa8b8,None,
226,0,226,0,,,,,,,411.467596578,409.749876557,,,Karol_VEP,001,2023_lis_15_1443,VEP,2020.1.2+brain0.21.g3600fa8b8,None,
227,0,227,0,,,,,,,413.051954166,411.667129543,,,Karol_VEP,001,2023_lis_15_1443,VEP,2020.1.2+brain0.21.g3600fa8b8,None,
228,0,228,0,,,,,,,414.871976486,413.255539698,,,Karol_VEP,001,2023_lis_15_1443,VEP,2020.1.2+brain0.21.g3600fa8b8,None,
229,0,229,0,,,,,,,416.36891411299996,415.08628303,,,Karol_VEP,001,2023_lis_15_1443,VEP,2020.1.2+brain0.21.g3600fa8b8,None,
230,0,230,0,,,,,,,418.2408601369999,416.5688436329999,,,Karol_VEP,001,2023_lis_15_1443,VEP,2020.1.2+brain0.21.g3600fa8b8,None,
231,0,231,0,,,,,,,419.78677842699994,418.4534486299999,,,Karol_VEP,001,2023_lis_15_1443,VEP,2020.1.2+brain0.21.g3600fa8b8,None,
232,0,232,0,,,,,,,421.607689627,419.99049100499997,,,Karol_VEP,001,2023_lis_15_1443,VEP,2020.1.2+brain0.21.g3600fa8b8,None,
233,0,233,0,,,,,,,423.22154382099995,421.8206942349999,,,Karol_VEP,001,2023_lis_15_1443,VEP,2020.1.2+brain0.21.g3600fa8b8,None,
234,0,234,0,,,,,,,424.65700687599997,423.422086056,,,Karol_VEP,001,2023_lis_15_1443,VEP,2020.1.2+brain0.21.g3600fa8b8,None,
235,0,235,0,,,,,,,426.38915859099995,424.875207007,,,Karol_VEP,001,2023_lis_15_1443,VEP,2020.1.2+brain0.21.g3600fa8b8,None,
236,0,236,0,,,,,,,428.039694596,426.5920560799999,,,Karol_VEP,001,2023_lis_15_1443,VEP,2020.1.2+brain0.21.g3600fa8b8,None,
237,0,237,0,,,,,,,429.67393780399993,428.2396497279999,,,Karol_VEP,001,2023_lis_15_1443,VEP,2020.1.2+brain0.21.g3600fa8b8,None,
238,0,238,0,,,,,,,431.32696799199994,429.874047787,,,Karol_VEP,001,2023_lis_15_1443,VEP,2020.1.2+brain0.21.g3600fa8b8,None,
239,0,239,0,,,,,,,432.9294483279999,431.52589060899993,,,Karol_VEP,001,2023_lis_15_1443,VEP,2020.1.2+brain0.21.g3600fa8b8,None,
240,0,240,0,,,,,,,434.378982823,433.14126265799996,,,Karol_VEP,001,2023_lis_15_1443,VEP,2020.1.2+brain0.21.g3600fa8b8,None,
241,0,241,0,,,,,,,436.10893419,434.59217512099997,,,Karol_VEP,001,2023_lis_15_1443,VEP,2020.1.2+brain0.21.g3600fa8b8,None,
242,0,242,0,,,,,,,437.626840917,436.31152586199994,,,Karol_VEP,001,2023_lis_15_1443,VEP,2020.1.2+brain0.21.g3600fa8b8,None,
243,0,243,0,,,,,,,439.33093974999997,437.82941585599997,,,Karol_VEP,001,2023_lis_15_1443,VEP,2020.1.2+brain0.21.g3600fa8b8,None,
244,0,244,0,,,,,,,441.294706444,439.54804686599994,,,Karol_VEP,001,2023_lis_15_1443,VEP,2020.1.2+brain0.21.g3600fa8b8,None,
245,0,245,0,,,,,,,443.1616340569999,441.498807877,,,Karol_VEP,001,2023_lis_15_1443,VEP,2020.1.2+brain0.21.g3600fa8b8,None,
246,0,246,0,,,,,,,444.762349235,443.361945763,,,Karol_VEP,001,2023_lis_15_1443,VEP,2020.1.2+brain0.21.g3600fa8b8,None,
247,0,247,0,,,,,,,446.19717743499996,444.9624172089999,,,Karol_VEP,001,2023_lis_15_1443,VEP,2020.1.2+brain0.21.g3600fa8b8,None,
248,0,248,0,,,,,,,447.9995971909999,446.4155225679999,,,Karol_VEP,001,2023_lis_15_1443,VEP,2020.1.2+brain0.21.g3600fa8b8,None,
249,0,249,0,,,,,,,449.4170613079999,448.2135112169999,,,Karol_VEP,001,2023_lis_15_1443,VEP,2020.1.2+brain0.21.g3600fa8b8,None,
250,0,250,0,,,,,,,450.830878603,449.61425260299995,,,Karol_VEP,001,2023_lis_15_1443,VEP,2020.1.2+brain0.21.g3600fa8b8,None,
251,0,251,0,,,,,,,452.6482406729999,451.03074841599994,,,Karol_VEP,001,2023_lis_15_1443,VEP,2020.1.2+brain0.21.g3600fa8b8,None,
252,0,252,0,,,,,,,454.61863424,452.84815748999995,,,Karol_VEP,001,2023_lis_15_1443,VEP,2020.1.2+brain0.21.g3600fa8b8,None,
253,0,253,0,,,,,,,456.2172425969999,454.832471521,,,Karol_VEP,001,2023_lis_15_1443,VEP,2020.1.2+brain0.21.g3600fa8b8,None,
254,0,254,0,,,,,,,457.63513110999986,456.43711628699987,,,Karol_VEP,001,2023_lis_15_1443,VEP,2020.1.2+brain0.21.g3600fa8b8,None,
255,0,255,0,,,,,,,459.48414416899993,457.833546727,,,Karol_VEP,001,2023_lis_15_1443,VEP,2020.1.2+brain0.21.g3600fa8b8,None,
256,0,256,0,,,,,,,461.31939537899996,459.68502418900005,,,Karol_VEP,001,2023_lis_15_1443,VEP,2020.1.2+brain0.21.g3600fa8b8,None,
257,0,257,0,,,,,,,463.251722075,461.53775683599986,,,Karol_VEP,001,2023_lis_15_1443,VEP,2020.1.2+brain0.21.g3600fa8b8,None,
258,0,258,0,,,,,,,465.052406939,463.45178596699986,,,Karol_VEP,001,2023_lis_15_1443,VEP,2020.1.2+brain0.21.g3600fa8b8,None,
259,0,259,0,,,,,,,466.75505764699994,465.25240046099987,,,Karol_VEP,001,2023_lis_15_1443,VEP,2020.1.2+brain0.21.g3600fa8b8,None,
260,0,260,0,,,,,,,468.73941038099986,466.96976043899997,,,Karol_VEP,001,2023_lis_15_1443,VEP,2020.1.2+brain0.21.g3600fa8b8,None,
261,0,261,0,,,,,,,470.45449991499993,468.953707066,,,Karol_VEP,001,2023_lis_15_1443,VEP,2020.1.2+brain0.21.g3600fa8b8,None,
262,0,262,0,,,,,,,472.34189849100005,470.654712635,,,Karol_VEP,001,2023_lis_15_1443,VEP,2020.1.2+brain0.21.g3600fa8b8,None,
263,0,263,0,,,,,,,474.07209039199995,472.555871421,,,Karol_VEP,001,2023_lis_15_1443,VEP,2020.1.2+brain0.21.g3600fa8b8,None,
264,0,264,0,,,,,,,476.044550725,474.27639856200005,,,Karol_VEP,001,2023_lis_15_1443,VEP,2020.1.2+brain0.21.g3600fa8b8,None,
265,0,265,0,,,,,,,477.607767053,476.25718734500003,,,Karol_VEP,001,2023_lis_15_1443,VEP,2020.1.2+brain0.21.g3600fa8b8,None,
266,0,266,0,,,,,,,479.4076300149999,477.80917013600003,,,Karol_VEP,001,2023_lis_15_1443,VEP,2020.1.2+brain0.21.g3600fa8b8,None,
267,0,267,0,,,,,,,480.8097344229999,479.61497288,,,Karol_VEP,001,2023_lis_15_1443,VEP,2020.1.2+brain0.21.g3600fa8b8,None,
268,0,268,0,,,,,,,482.70887508,481.0244844,,,Karol_VEP,001,2023_lis_15_1443,VEP,2020.1.2+brain0.21.g3600fa8b8,None,
269,0,269,0,,,,,,,484.2098161559999,482.911542745,,,Karol_VEP,001,2023_lis_15_1443,VEP,2020.1.2+brain0.21.g3600fa8b8,None,
270,0,270,0,,,,,,,485.6423696149999,484.425497693,,,Karol_VEP,001,2023_lis_15_1443,VEP,2020.1.2+brain0.21.g3600fa8b8,None,
271,0,271,0,,,,,,,487.043016213,485.8422575159999,,,Karol_VEP,001,2023_lis_15_1443,VEP,2020.1.2+brain0.21.g3600fa8b8,None,
272,0,272,0,,,,,,,488.9769719709999,487.24376503899987,,,Karol_VEP,001,2023_lis_15_1443,VEP,2020.1.2+brain0.21.g3600fa8b8,None,
273,0,273,0,,,,,,,490.564395667,489.17874779400006,,,Karol_VEP,001,2023_lis_15_1443,VEP,2020.1.2+brain0.21.g3600fa8b8,None,
274,0,274,0,,,,,,,492.5446359209999,490.7804026759999,,,Karol_VEP,001,2023_lis_15_1443,VEP,2020.1.2+brain0.21.g3600fa8b8,None,
275,0,275,0,,,,,,,494.31188436700006,492.746302056,,,Karol_VEP,001,2023_lis_15_1443,VEP,2020.1.2+brain0.21.g3600fa8b8,None,
276,0,276,0,,,,,,,496.24566452099987,494.5115502319999,,,Karol_VEP,001,2023_lis_15_1443,VEP,2020.1.2+brain0.21.g3600fa8b8,None,
277,0,277,0,,,,,,,497.64798982900004,496.44584833500005,,,Karol_VEP,001,2023_lis_15_1443,VEP,2020.1.2+brain0.21.g3600fa8b8,None,
278,0,278,0,,,,,,,499.41344568099987,497.85102081,,,Karol_VEP,001,2023_lis_15_1443,VEP,2020.1.2+brain0.21.g3600fa8b8,None,
279,0,279,0,,,,,,,501.313877639,499.61335321399986,,,Karol_VEP,001,2023_lis_15_1443,VEP,2020.1.2+brain0.21.g3600fa8b8,None,
280,0,280,0,,,,,,,502.7196345199999,501.514033948,,,Karol_VEP,001,2023_lis_15_1443,VEP,2020.1.2+brain0.21.g3600fa8b8,None,
281,0,281,0,,,,,,,504.24939326499987,502.9307779259999,,,Karol_VEP,001,2023_lis_15_1443,VEP,2020.1.2+brain0.21.g3600fa8b8,None,
282,0,282,0,,,,,,,506.14958239400005,504.467661021,,,Karol_VEP,001,2023_lis_15_1443,VEP,2020.1.2+brain0.21.g3600fa8b8,None,
283,0,283,0,,,,,,,507.73323858599986,506.351160458,,,Karol_VEP,001,2023_lis_15_1443,VEP,2020.1.2+brain0.21.g3600fa8b8,None,
284,0,284,0,,,,,,,509.4171600399999,507.9321393839999,,,Karol_VEP,001,2023_lis_15_1443,VEP,2020.1.2+brain0.21.g3600fa8b8,None,
285,0,285,0,,,,,,,511.01969023000004,509.63268136299996,,,Karol_VEP,001,2023_lis_15_1443,VEP,2020.1.2+brain0.21.g3600fa8b8,None,
286,0,286,0,,,,,,,512.5504117259999,511.23345150600005,,,Karol_VEP,001,2023_lis_15_1443,VEP,2020.1.2+brain0.21.g3600fa8b8,None,
287,0,287,0,,,,,,,514.0372154139999,512.7502814359999,,,Karol_VEP,001,2023_lis_15_1443,VEP,2020.1.2+brain0.21.g3600fa8b8,None,
288,0,288,0,,,,,,,515.935199415,514.234481805,,,Karol_VEP,001,2023_lis_15_1443,VEP,2020.1.2+brain0.21.g3600fa8b8,None,
289,0,289,0,,,,,,,517.3520611959999,516.134970359,,,Karol_VEP,001,2023_lis_15_1443,VEP,2020.1.2+brain0.21.g3600fa8b8,None,
290,0,290,0,,,,,,,519.3044300379999,517.555567537,,,Karol_VEP,001,2023_lis_15_1443,VEP,2020.1.2+brain0.21.g3600fa8b8,None,
291,0,291,0,,,,,,,520.76940357,519.5050970009999,,,Karol_VEP,001,2023_lis_15_1443,VEP,2020.1.2+brain0.21.g3600fa8b8,None,
292,0,292,0,,,,,,,522.538747533,520.9698472849999,,,Karol_VEP,001,2023_lis_15_1443,VEP,2020.1.2+brain0.21.g3600fa8b8,None,
293,0,293,0,,,,,,,524.321980567,522.7580059329999,,,Karol_VEP,001,2023_lis_15_1443,VEP,2020.1.2+brain0.21.g3600fa8b8,None,
294,0,294,0,,,,,,,525.9378247579999,524.540568646,,,Karol_VEP,001,2023_lis_15_1443,VEP,2020.1.2+brain0.21.g3600fa8b8,None,
295,0,295,0,,,,,,,527.7580828819999,526.142642696,,,Karol_VEP,001,2023_lis_15_1443,VEP,2020.1.2+brain0.21.g3600fa8b8,None,
296,0,296,0,,,,,,,529.491491766,527.9715315990001,,,Karol_VEP,001,2023_lis_15_1443,VEP,2020.1.2+brain0.21.g3600fa8b8,None,
297,0,297,0,,,,,,,531.3110551009999,529.707569738,,,Karol_VEP,001,2023_lis_15_1443,VEP,2020.1.2+brain0.21.g3600fa8b8,None,
298,0,298,0,,,,,,,533.291081918,531.52570574,,,Karol_VEP,001,2023_lis_15_1443,VEP,2020.1.2+brain0.21.g3600fa8b8,None,
299,0,299,0,,,,,,,535.1743026949999,533.49509806,,,Karol_VEP,001,2023_lis_15_1443,VEP,2020.1.2+brain0.21.g3600fa8b8,None,
,,,,,,,,,,,,537.360145018,None,,,,,,,
